timestamp,timestamp_sample,ref_timestamp,ref_lat,ref_lon,x,y,z,delta_xy[0],delta_xy[1],delta_z,vx,vy,vz,z_deriv,delta_vxy[0],delta_vxy[1],delta_vz,ax,ay,az,heading,delta_heading,ref_alt,dist_bottom,eph,epv,evh,evv,vxy_max,vz_max,hagl_min,hagl_max,xy_valid,z_valid,v_xy_valid,v_z_valid,xy_reset_counter,z_reset_counter,vxy_reset_counter,vz_reset_counter,heading_reset_counter,heading_good_for_control,xy_global,z_global,dist_bottom_valid,dist_bottom_sensor_bitfield
9240000,9240000,904000,47.3977508,8.5456073,-0.0019950282,0.006787462,0.012664598,-0.011039297,0.00741849,0.0,-0.002369451,0.0007086338,0.00030115683,-0.0014321627,0.00054475106,-0.0004166934,-0.00028855354,-0.0075484416,-0.03304133,0.041699965,1.622211,-0.00060892105,488.11032,0.1,0.44722453,0.29270282,0.016046412,0.011387078,inf,inf,inf,inf,1,1,1,1,2,0,2,1,2,0,1,1,1,0
9736000,9736000,904000,47.3977508,8.5456073,-0.003017373,0.007350494,0.0113082165,-0.011039297,0.00741849,0.0,-0.0020098698,0.0004066473,-0.0004398012,-0.002708441,0.00054475106,-0.0004166934,-0.00028855354,-0.0029893997,0.014946344,0.020235775,1.6195171,-0.00060892105,488.11032,0.1,0.42641932,0.28391048,0.021198861,0.0150842415,inf,inf,inf,inf,1,1,1,1,2,0,2,1,2,0,1,1,1,0
10232000,10232000,904000,47.3977508,8.5456073,-0.0023967563,0.007944699,0.011170658,-0.011039297,0.00741849,0.0,-0.0018161985,0.0027617991,-0.0016597571,-0.0030005453,0.00054475106,-0.0004166934,-0.00028855354,0.009870694,0.008097049,-0.0313241,1.6191537,-0.00060892105,488.11032,0.1006613,0.40826392,0.27672023,0.012244035,0.008693761,inf,inf,inf,inf,1,1,1,1,2,0,2,1,2,0,1,1,1,0
10736000,10736000,904000,47.3977508,8.5456073,-0.002207111,0.0076389033,0.010037447,-0.011039297,0.00741849,0.0,0.0013488027,0.00031284522,0.0006598463,-0.00069219305,0.00054475106,-0.0004166934,-0.00028855354,0.0075607672,0.01077888,0.009807757,1.6168745,-0.00060892105,488.11032,0.10069879,0.3779834,0.26925507,0.01865478,0.013314951,inf,inf,inf,inf,1,1,1,1,2,0,2,1,2,0,1,1,1,0
11232000,11232000,904000,47.3977508,8.5456073,-0.0017571464,0.0071951565,0.011594323,-0.011039297,0.00741849,0.0,0.00053267286,0.0021140426,-0.00042141206,7.799624e-05,0.00054475106,-0.0004166934,-0.00028855354,0.009232637,0.020820705,0.013662501,1.6154064,-0.00060892105,488.11032,0.10125009,0.36516815,0.2631006,0.00812521,0.005760107,inf,inf,inf,inf,1,1,1,1,2,0,2,1,2,0,1,1,1,0
11736000,11736000,904000,47.3977508,8.5456073,-0.0023620492,0.006701271,0.011848781,-0.011039297,0.00741849,0.0,-0.0017936075,0.00015997647,0.0005696697,0.0013220959,0.00054475106,-0.0004166934,-0.00028855354,-0.021722807,0.042640544,0.05157012,1.6145917,-0.00060892105,488.11032,0.100585565,0.35357708,0.25735202,0.015960485,0.01138778,inf,inf,inf,inf,1,1,1,1,2,0,2,1,2,0,1,1,1,0
12240000,12240000,904000,47.3977508,8.5456073,-0.002367913,0.006640684,0.011702311,-0.011039297,0.00741849,0.0,-0.00034011345,0.002045532,0.0017005367,0.0012946774,0.00054475106,-0.0004166934,-0.00028855354,0.05229355,0.00047334467,0.005963258,1.6136117,-0.00060892105,488.11032,0.1,0.34303048,0.2513185,0.021498363,0.015425539,inf,inf,inf,inf,1,1,1,1,2,0,2,1,2,0,1,1,1,0
12736000,12736000,904000,47.3977508,8.5456073,-0.0016694118,0.00689226,0.011502985,-0.011039297,0.00741849,0.0,0.0025034854,0.00038447286,0.003778139,0.0024887675,0.00054475106,-0.0004166934,-0.00028855354,0.023844039,-0.008328366,0.019102355,1.6118051,-0.00060892105,488.11032,0.1,0.32486767,0.24659114,0.044958096,0.03258584,inf,inf,inf,inf,1,1,1,1,2,0,2,1,2,0,1,1,1,0
13232000,13232000,904000,47.3977508,8.5456073,0.0005597101,0.0077614253,0.012821974,-0.011039297,0.00741849,0.0,0.0065428545,0.0010595849,0.008871358,0.0070660454,0.00054475106,-0.0004166934,-0.00028855354,0.01378401,-0.015077631,0.01955591,1.6112033,-0.00060892105,488.11032,0.1,0.3186777,0.24335454,0.06603402,0.047345813,inf,inf,inf,inf,1,1,1,1,2,0,2,1,2,0,1,1,1,0
13736000,13736000,904000,47.3977508,8.5456073,0.0041613556,0.008060082,0.016830778,-0.011039297,0.00741849,0.0,0.010775868,0.00085526024,0.013960923,0.011554057,0.00054475106,-0.0004166934,-0.00028855354,0.052007172,0.0128558455,0.0073015685,1.6108028,-0.00060892105,488.11032,0.1,0.3167733,0.24241619,0.08741489,0.061469384,inf,inf,inf,inf,1,1,1,1,2,0,2,1,2,0,1,1,1,0
14240000,14240000,904000,47.3977508,8.5456073,0.00876822,0.0079424195,0.02100363,-0.011039297,0.00741849,0.0,0.006990554,-0.0013414418,-0.012685317,-0.015259673,0.00054475106,-0.0004166934,-0.00028855354,-0.045969833,0.0002844026,-0.24241301,1.6113976,-0.00060892105,488.11032,0.100026816,0.32146773,0.2464387,0.10889424,0.07491516,inf,inf,inf,inf,1,1,1,1,2,0,2,1,2,0,1,1,1,0
14736000,14736000,904000,47.3977508,8.5456073,-0.010225735,-0.006937682,-0.012977462,-0.011039297,0.00741849,0.0,-0.114288375,-0.10812668,-0.1341369,-0.13645865,0.00054475106,-0.0004166934,-0.00028855354,-0.2771238,-0.27406666,-0.40930322,1.6206313,-0.00060892105,488.11032,0.13400942,0.3228013,0.2543014,0.12392938,0.08578743,inf,inf,inf,inf,1,1,1,1,2,0,2,1,2,0,1,1,1,0
15232000,15232000,904000,47.3977508,8.5456073,-0.0792378,-0.06738316,-0.13528171,-0.011039297,0.00741849,0.0,-0.11841869,-0.109103404,-0.34672526,-0.34983003,0.00054475106,-0.0004166934,-0.00028855354,0.16075549,0.16455406,-0.3522029,1.6187706,-0.00060892105,488.11032,0.25631368,0.34048367,0.2686904,0.14191751,0.09679295,inf,inf,inf,inf,1,1,1,1,2,0,2,1,2,0,1,1,1,0
15736000,15736000,904000,47.3977508,8.5456073,-0.13005334,-0.1045567,-0.35946998,-0.011039297,0.00741849,0.0,-0.030283751,-0.028721834,-0.5214592,-0.52597094,0.00054475106,-0.0004166934,-0.00028855354,0.2132167,0.1726327,-0.33537203,1.616976,-0.00060892105,488.11032,0.48050195,0.3650942,0.28771824,0.15796977,0.10672403,inf,inf,inf,inf,1,1,1,1,2,0,2,1,2,0,1,1,1,0
16240000,16240000,904000,47.3977508,8.5456073,-0.13506278,-0.103776574,-0.663507,-0.011039297,0.00741849,0.0,0.057929914,0.04857222,-0.65444285,-0.66188145,0.00054475106,-0.0004166934,-0.00028855354,0.14957076,0.15949923,-0.20024365,1.6151968,-0.00060892105,488.11032,0.7845389,0.39413637,0.31157264,0.17152958,0.11539914,inf,inf,inf,inf,1,1,1,1,2,0,2,1,2,0,1,1,1,0
16736000,16736000,904000,47.3977508,8.5456073,-0.11170092,-0.07503463,-1.0195032,-0.011039297,0.00741849,0.0,0.1044247,0.09028914,-0.7528978,-0.76167935,0.00054475106,-0.0004166934,-0.00028855354,0.056854635,0.05174655,-0.22491066,1.6150169,-0.00060892105,488.11032,1.1405352,0.3911542,0.3307842,0.16445698,0.118194826,inf,inf,inf,inf,1,1,1,1,2,0,2,1,2,0,1,1,1,0
17240000,17240000,904000,47.3977508,8.5456073,-0.076795384,-0.03953079,-1.4211175,-0.011039297,0.00741849,0.0,0.1157552,0.095244914,-0.83615106,-0.84201247,0.00054475106,-0.0004166934,-0.00028855354,0.02048067,-0.00052800163,-0.14472379,1.614211,-0.00060892105,488.11032,1.5421495,0.41619465,0.35414132,0.17144735,0.123245,inf,inf,inf,inf,1,1,1,1,2,0,2,1,2,0,1,1,0,0
17736000,17736000,904000,47.3977508,8.5456073,-0.041440208,-0.005768062,-1.860669,-0.011039297,0.00741849,0.0,0.10533722,0.08070123,-0.89646107,-0.9074354,0.00054475106,-0.0004166934,-0.00028855354,0.03599052,-0.03335526,-0.08889846,1.6090059,-0.0020639303,488.11032,1.981701,0.43925077,0.37757665,0.19614525,0.12717752,inf,inf,inf,inf,1,1,1,1,2,0,2,1,3,0,1,1,0,0
18232000,18232000,904000,47.3977508,8.5456073,-0.0017310885,0.024914224,-2.3305893,-0.011039297,0.00741849,0.0,0.08878528,0.06228479,-0.94028395,-0.9579652,0.00054475106,-0.0004166934,-0.00028855354,-0.006513306,-0.007222639,-0.081348225,1.6098725,-0.0020639303,488.11032,2.4516213,0.46079043,0.39936897,0.29594254,0.13006848,inf,inf,inf,inf,1,1,1,1,2,0,2,1,3,0,1,1,0,0
18736000,18736000,904000,47.3977508,8.5456073,0.029798897,0.055139992,-2.8392186,-0.011039297,0.00741849,0.0,0.05847044,0.039893866,-0.96495014,-0.9960693,0.00054475106,-0.0004166934,-0.00028855354,-0.08602786,-0.06526921,-0.06580166,1.6113938,-0.0020639303,488.11032,2.9602506,0.43875667,0.40602556,0.27754954,0.1264705,inf,inf,inf,inf,1,1,1,1,2,0,2,1,3,1,1,1,0,0
19240000,19240000,904000,47.3977508,8.5456073,0.05522761,0.08230039,-3.351462,-0.011039297,0.00741849,0.0,0.03744782,0.024222828,-0.9902548,-1.0236099,0.00054475106,-0.0004166934,-0.00028855354,-0.047508262,-0.092326336,-0.0022631136,1.6103364,-0.0020639303,488.11032,3.472494,0.45633137,0.42323583,0.29449248,0.12810573,inf,inf,inf,inf,1,1,1,1,2,0,2,1,3,1,1,1,0,0
19736000,19736000,904000,47.3977508,8.5456073,0.066173375,0.10434498,-3.875722,-0.011039297,0.00741849,0.0,0.008859381,0.011481341,-1.0079399,-1.0505366,0.00054475106,-0.0004166934,-0.00028855354,-0.023501124,-0.062663816,0.04135258,1.610566,-0.0020639303,488.11032,3.996754,0.47453448,0.43411747,0.29595682,0.12857883,inf,inf,inf,inf,1,1,1,1,2,0,2,1,3,1,1,1,0,0
20232000,20232000,904000,47.3977508,8.5456073,0.057588376,0.10800987,-4.3977,-0.011039297,0.00741849,0.0,-0.009175345,-0.013073169,-1.0198711,-1.0599047,0.00054475106,-0.0004166934,-0.00028855354,-0.002446919,-0.04104635,-0.039103437,1.610661,-0.0020639303,488.11032,4.5187316,0.4932731,0.4462297,0.29131418,0.12953769,inf,inf,inf,inf,1,1,1,1,2,0,2,1,3,1,1,1,0,0
20736000,20736000,904000,47.3977508,8.5456073,0.051148016,0.102079846,-4.9405093,-0.011039297,0.00741849,0.0,-0.01037877,-0.023573112,-1.034486,-1.076772,0.00054475106,-0.0004166934,-0.00028855354,0.016801365,-0.017850352,-0.0043446193,1.6096988,-0.0020639303,488.11032,5.061541,0.45761693,0.44235092,0.23387763,0.12488263,inf,inf,inf,inf,1,1,1,1,2,0,2,1,3,1,1,1,0,0
21232000,21232000,904000,47.3977508,8.5456073,0.039260987,0.10232002,-5.4735746,-0.011039297,0.00741849,0.0,-0.011229072,-0.026021171,-1.0286281,-1.0674722,0.00054475106,-0.0004166934,-0.00028855354,-0.017897982,-0.0053357575,0.6209956,1.6101168,-0.0020639303,488.11032,5.5946064,0.47169387,0.45105353,0.23128085,0.12595442,inf,inf,inf,inf,1,1,1,1,2,0,2,1,3,1,1,1,0,0
21736000,21736000,904000,47.3977508,8.5456073,0.02865,0.09260883,-5.7581525,-0.011039297,0.00741849,0.0,0.074785985,-0.043412358,-0.017317396,-0.065866284,0.00054475106,-0.0004166934,-0.00028855354,0.75421536,0.0009192444,0.9507872,1.6101204,-0.0020639303,488.11032,5.8791842,0.48700565,0.45535222,0.22652379,0.1266433,inf,inf,inf,inf,1,1,1,1,2,0,2,1,3,1,1,1,0,0
22232000,22232000,904000,47.3977508,8.5456073,0.17521481,0.07132082,-5.7782283,-0.011039297,0.00741849,0.0,0.61804974,-0.037647326,-0.06671793,-0.11233145,0.00054475106,-0.0004166934,-0.00028855354,1.1272414,0.016349979,0.05032215,1.6081059,-0.0020639303,488.11032,5.89926,0.501219,0.46160257,0.22443129,0.12788549,inf,inf,inf,inf,1,1,1,1,2,0,2,1,3,1,1,1,0,0
22736000,22736000,904000,47.3977508,8.5456073,0.58706313,0.052945875,-5.8219786,-0.011039297,0.00741849,0.0,1.0450027,-0.031311803,-0.00028219854,-0.046742473,0.00054475106,-0.0004166934,-0.00028855354,0.52390283,-0.0048446963,0.13487133,1.6089213,-0.0020639303,488.11032,5.9430103,0.4647035,0.45377746,0.19381323,0.12395541,inf,inf,inf,inf,1,1,1,1,2,0,2,1,3,1,1,1,0,0
23240000,23240000,904000,47.3977508,8.5456073,1.160445,0.037778527,-5.831703,-0.011039297,0.00741849,0.0,1.0914239,-0.022926822,0.037023425,-0.006380992,0.00054475106,-0.0004166934,-0.00028855354,-0.43905386,-0.00662975,0.08365977,1.6082295,-0.0020639303,488.11032,5.952735,0.4774485,0.45942515,0.19301093,0.12580015,inf,inf,inf,inf,1,1,1,1,2,0,2,1,3,1,1,1,0,0
23736000,23736000,904000,47.3977508,8.5456073,1.638643,0.023946565,-5.8325005,-0.011039297,0.00741849,0.0,0.66247004,-0.01430827,0.048036512,0.0041339276,0.00054475106,-0.0004166934,-0.00028855354,-1.2923083,0.015498516,0.03590062,1.607918,-0.0020639303,488.11032,5.953532,0.48934615,0.46001923,0.19169915,0.12697178,inf,inf,inf,inf,1,1,1,1,2,0,2,1,3,1,1,1,0,0
24232000,24232000,904000,47.3977508,8.5456073,1.8294337,0.02411426,-5.8304853,-0.011039297,0.00741849,0.0,-0.087973855,-0.003925676,0.04164397,-0.00052942405,0.00054475106,-0.0004166934,-0.00028855354,-1.7328134,-0.02154945,0.004167668,1.6085204,-0.0020639303,488.11032,5.951517,0.50124234,0.46424174,0.19322075,0.12869251,inf,inf,inf,inf,1,1,1,1,2,0,2,1,3,1,1,1,0,0
24736000,24736000,904000,47.3977508,8.5456073,1.6179763,0.033695057,-5.8279676,-0.011039297,0.00741849,0.0,-0.9337478,-0.0025399902,0.043164313,0.0037327136,0.00054475106,-0.0004166934,-0.00028855354,-1.690499,-0.025007784,0.029743647,1.6084967,-0.0020639303,488.11032,5.9489994,0.46610385,0.455329,0.17600846,0.1248657,inf,inf,inf,inf,1,1,1,1,2,0,2,1,3,1,1,1,0,0
25232000,25232000,904000,47.3977508,8.5456073,1.0188484,0.061291214,-5.827184,-0.011039297,0.00741849,0.0,-1.6033708,-0.007032112,0.05556414,0.012878901,0.00054475106,-0.0004166934,-0.00028855354,-1.062632,-0.0509809,0.06963405,1.6086621,-0.0020639303,488.11032,5.948216,0.4764474,0.45899025,0.18082114,0.12655082,inf,inf,inf,inf,1,1,1,1,2,0,2,1,3,1,1,1,0,0
25736000,25736000,904000,47.3977508,8.5456073,0.13526894,0.09637382,-5.8231664,-0.011039297,0.00741849,0.0,-1.9091842,-0.016814146,0.06404005,0.017089639,0.00054475106,-0.0004166934,-0.00028855354,-0.13468577,-0.0489737,0.014521181,1.6078261,-0.0020639303,488.11032,5.944198,0.48798618,0.45959365,0.18323293,0.12806971,inf,inf,inf,inf,1,1,1,1,2,0,2,1,3,1,1,1,0,0
26232000,26232000,904000,47.3977508,8.5456073,-0.7833867,0.12740926,-5.822802,-0.011039297,0.00741849,0.0,-1.7370584,-0.044089667,0.06134729,0.009537192,0.00054475106,-0.0004166934,-0.00028855354,0.8081201,-0.11473717,0.0004135072,1.6082762,-0.0020639303,488.11032,5.943834,0.49885005,0.46366012,0.18245353,0.13014574,inf,inf,inf,inf,1,1,1,1,2,0,2,1,3,1,1,1,0,0
26736000,26736000,904000,47.3977508,8.5456073,-1.5393776,0.13570298,-5.8241315,-0.011039297,0.00741849,0.0,-1.1167616,-0.077095814,0.052407935,-0.0023691512,0.00054475106,-0.0004166934,-0.00028855354,1.6179677,-0.06945868,-0.048981976,1.6089596,-0.0020639303,488.11032,5.9451632,0.46518922,0.45503876,0.16476859,0.12652682,inf,inf,inf,inf,1,1,1,1,2,0,2,1,3,1,1,1,0,0
27240000,27240000,904000,47.3977508,8.5456073,-1.9194047,0.12342374,-5.8529806,-0.011039297,0.00741849,0.0,-0.21352336,-0.09028791,0.054471932,-0.021288872,0.00054475106,-0.0004166934,-0.00028855354,1.9467,-0.0033135219,0.06338115,1.6094085,-0.0020639303,488.11032,5.9740124,0.47563136,0.45958188,0.17184342,0.12857191,inf,inf,inf,inf,1,1,1,1,2,0,2,1,3,1,1,1,0,0
27736000,27736000,904000,47.3977508,8.5456073,-1.8275825,0.09459918,-5.8710055,-0.011039297,0.00741849,0.0,0.7280721,-0.089686364,0.079307094,-0.005132838,0.00054475106,-0.0004166934,-0.00028855354,1.8424339,0.045488402,0.08393358,1.6091627,-0.0020639303,488.11032,5.9920373,0.48553237,0.4595614,0.18374974,0.12970486,inf,inf,inf,inf,1,1,1,1,2,0,2,1,3,1,1,1,0,0
28232000,28232000,904000,47.3977508,8.5456073,-1.2915447,0.05081534,-5.86597,-0.011039297,0.00741849,0.0,1.5092219,-0.08022832,0.0996263,0.019015336,0.00054475106,-0.0004166934,-0.00028855354,1.2851051,0.03511594,0.04348438,1.6086439,-0.0020639303,488.11032,5.987002,0.49616775,0.46352816,0.19523199,0.13126361,inf,inf,inf,inf,1,1,1,1,2,0,2,1,3,1,1,1,0,0
28736000,28736000,904000,47.3977508,8.5456073,-0.4209996,0.010950128,-5.8513165,-0.011039297,0.00741849,0.0,1.9339203,-0.05380408,0.10120425,0.025328748,0.00054475106,-0.0004166934,-0.00028855354,0.3627518,0.05411029,-0.0017024575,1.6080145,-0.0020639303,488.11032,5.972348,0.4635164,0.4548883,0.17835051,0.12710983,inf,inf,inf,inf,1,1,1,1,2,0,2,1,3,1,1,1,0,0
29232000,29232000,904000,47.3977508,8.5456073,0.55198395,-0.012431104,-5.8494887,-0.011039297,0.00741849,0.0,1.8813784,-0.02380685,0.10024065,0.017117538,0.00054475106,-0.0004166934,-0.00028855354,-0.5847462,0.08572025,0.028669832,1.6076437,-0.0020639303,488.11032,5.9705205,0.47338843,0.4586918,0.17839745,0.12881656,inf,inf,inf,inf,1,1,1,1,2,0,2,1,3,1,1,1,0,0
29736000,29736000,904000,47.3977508,8.5456073,1.404464,-0.020704092,-5.8398423,-0.011039297,0.00741849,0.0,1.3460029,-0.0040975832,0.098310165,0.016520275,0.00054475106,-0.0004166934,-0.00028855354,-1.4748368,0.025011104,-0.0015497206,1.6079541,-0.0020639303,488.11032,5.960874,0.48466685,0.45943925,0.17801212,0.13023426,inf,inf,inf,inf,1,1,1,1,2,0,2,1,3,1,1,1,0,0
30240000,30240000,904000,47.3977508,8.5456073,1.9004565,-0.016631763,-5.8402214,-0.011039297,0.00741849,0.0,0.47572863,0.0066999476,0.080623604,-0.0030860447,0.00054475106,-0.0004166934,-0.00028855354,-1.9971927,-0.0060268207,0.005200505,1.6084523,-0.0020639303,488.11032,5.961253,0.4962665,0.46424603,0.18357019,0.13211432,inf,inf,inf,inf,1,1,1,1,2,0,2,1,3,1,1,1,0,0
30736000,30736000,904000,47.3977508,8.5456073,1.9316665,0.013164137,-5.838728,-0.011039297,0.00741849,0.0,-0.48683053,0.009553958,0.06546546,-0.010675261,0.00054475106,-0.0004166934,-0.00028855354,-1.9212412,-0.08442087,0.006459653,1.6085559,-0.0020639303,488.11032,5.9597597,0.4631101,0.45496684,0.17516904,0.12767532,inf,inf,inf,inf,1,1,1,1,2,0,2,1,3,1,1,1,0,0
31232000,31232000,904000,47.3977508,8.5456073,1.4979467,0.060408868,-5.836249,-0.011039297,0.00741849,0.0,-1.334286,-0.00091045507,0.07138161,0.0010237512,0.00054475106,-0.0004166934,-0.00028855354,-1.4545572,-0.07620299,0.033002343,1.6071266,-0.0020639303,488.11032,5.9572806,0.47285673,0.4550514,0.18703689,0.12865424,inf,inf,inf,inf,1,1,1,1,2,0,2,1,3,1,1,1,0,0
31736000,31736000,904000,47.3977508,8.5456073,0.67927164,0.09982305,-5.8311687,-0.011039297,0.00741849,0.0,-1.8715312,-0.029408792,0.07948368,0.010945238,0.00054475106,-0.0004166934,-0.00028855354,-0.63447535,-0.13211975,0.042833384,1.6068608,-0.0020639303,488.11032,5.9522004,0.48427638,0.45981637,0.19407801,0.13037781,inf,inf,inf,inf,1,1,1,1,2,0,2,1,3,1,1,1,0,0
32232000,32232000,904000,47.3977508,8.5456073,-0.29752854,0.1282561,-5.827331,-0.011039297,0.00741849,0.0,-1.9404823,-0.061060566,0.07726553,0.007987256,0.00054475106,-0.0004166934,-0.00028855354,0.38209376,-0.13485014,0.00068545336,1.6069323,-0.0020639303,488.11032,5.948363,0.4957031,0.46002463,0.19381273,0.131509,inf,inf,inf,inf,1,1,1,1,2,0,2,1,3,1,1,1,0,0
32736000,32736000,904000,47.3977508,8.5456073,-1.2207018,0.13958089,-5.8234725,-0.011039297,0.00741849,0.0,-1.5141728,-0.092548974,0.07468628,0.0070513403,0.00054475106,-0.0004166934,-0.00028855354,1.3299423,-0.10690833,-0.015066004,1.6079309,-0.0020639303,488.11032,5.9445043,0.46303308,0.45552343,0.17099206,0.12797546,inf,inf,inf,inf,1,1,1,1,2,0,2,1,3,1,1,1,0,0
33232000,33232000,904000,47.3977508,8.5456073,-1.8431954,0.12898162,-5.820381,-0.011039297,0.00741849,0.0,-0.7293581,-0.112026304,0.05120406,-0.012795872,0.00054475106,-0.0004166934,-0.00028855354,1.8536464,-0.045440476,-0.058888454,1.6088804,-0.0020639303,488.11032,5.941413,0.47318712,0.45565423,0.17392261,0.12911603,inf,inf,inf,inf,1,1,1,1,2,0,2,1,3,1,1,1,0,0
33736000,33736000,904000,47.3977508,8.5456073,-2.0227923,0.10227931,-5.8284335,-0.011039297,0.00741849,0.0,0.24787799,-0.10700497,0.036554504,-0.024706643,0.00054475106,-0.0004166934,-0.00028855354,2.0198452,0.005137437,0.022191552,1.609784,-0.0020639303,488.11032,5.9494653,0.48452792,0.46031252,0.18546177,0.13076574,inf,inf,inf,inf,1,1,1,1,2,0,2,1,3,1,1,1,0,0
34232000,34232000,904000,47.3977508,8.5456073,-1.7080699,0.08220799,-5.831141,-0.011039297,0.00741849,0.0,1.155739,-0.09120928,0.054271463,-0.0019039311,0.00054475106,-0.0004166934,-0.00028855354,1.6250309,-0.024474196,0.06533134,1.6094198,-0.0020639303,488.11032,5.9521728,0.49569935,0.46420816,0.19963509,0.13207448,inf,inf,inf,inf,1,1,1,1,2,0,2,1,3,1,1,1,0,0
34736000,34736000,904000,47.3977508,8.5456073,-0.9734891,0.060139928,-5.8238454,-0.011039297,0.00741849,0.0,1.7991923,-0.07818704,0.06985798,0.017826864,0.00054475106,-0.0004166934,-0.00028855354,0.886343,0.012018354,-0.0021541489,1.6089662,-0.0020639303,488.11032,5.944877,0.46303895,0.45531094,0.18402183,0.1275656,inf,inf,inf,inf,1,1,1,1,2,0,2,1,3,1,1,1,0,0
35232000,35232000,904000,47.3977508,8.5456073,-0.012932107,0.032623757,-5.8101535,-0.011039297,0.00741849,0.0,2.0023909,-0.06190837,0.06427611,0.015471775,0.00054475106,-0.0004166934,-0.00028855354,-0.05599565,0.010191681,0.047221776,1.6087534,-0.0020639303,488.11032,5.9311852,0.4733052,0.45900276,0.18489882,0.12906457,inf,inf,inf,inf,1,1,1,1,2,0,2,1,3,1,1,1,0,0
35736000,35736000,904000,47.3977508,8.5456073,0.9534739,0.023230907,-5.80828,-0.011039297,0.00741849,0.0,1.7112104,-0.040858664,0.06545123,0.0113526145,0.00054475106,-0.0004166934,-0.00028855354,-1.0620419,-0.014559699,0.049747523,1.6091361,-0.0020639303,488.11032,5.9293118,0.4851151,0.46342748,0.1817483,0.13087258,inf,inf,inf,inf,1,1,1,1,2,0,2,1,3,1,1,1,0,0
36232000,36232000,904000,47.3977508,8.5456073,1.6607128,0.014232127,-5.8005605,-0.011039297,0.00741849,0.0,1.0075375,-0.034699693,0.058134686,0.0064921775,0.00054475106,-0.0004166934,-0.00028855354,-1.7353538,0.010778691,-0.022166407,1.6080973,-0.0020639303,488.11032,5.921592,0.49620897,0.46309146,0.18033023,0.13191639,inf,inf,inf,inf,1,1,1,1,2,0,2,1,3,1,1,1,0,0
36736000,36736000,904000,47.3977508,8.5456073,1.9682865,0.010637711,-5.801492,-0.011039297,0.00741849,0.0,0.059454534,-0.023780523,0.033576053,-0.015971474,0.00054475106,-0.0004166934,-0.00028855354,-1.9543666,0.024127118,-0.040848736,1.6084696,-0.0020639303,488.11032,5.922524,0.4635521,0.45427048,0.16793303,0.12761271,inf,inf,inf,inf,1,1,1,1,2,0,2,1,3,1,1,1,0,0
37240000,37240000,904000,47.3977508,8.5456073,1.7863926,0.019417424,-5.8115134,-0.011039297,0.00741849,0.0,-0.88947535,-0.019994076,0.0406156,-0.011189435,0.00054475106,-0.0004166934,-0.00028855354,-1.782658,0.017092431,0.07433723,1.6085821,-0.0020639303,488.11032,5.932545,0.4740951,0.45874053,0.17926316,0.12922132,inf,inf,inf,inf,1,1,1,1,2,0,2,1,3,1,1,1,0,0
37736000,37736000,904000,47.3977508,8.5456073,1.1763716,0.03215687,-5.818479,-0.011039297,0.00741849,0.0,-1.6138436,-0.020074809,0.05980421,0.0026023618,0.00054475106,-0.0004166934,-0.00028855354,-1.1634786,0.0038739087,0.075199634,1.607724,-0.0020639303,488.11032,5.939511,0.48437822,0.4625269,0.18857823,0.13061842,inf,inf,inf,inf,1,1,1,1,2,0,2,1,3,1,1,1,0,0
38232000,38232000,904000,47.3977508,8.5456073,0.27797335,0.057408296,-5.8199334,-0.011039297,0.00741849,0.0,-1.9563621,-0.024015198,0.074538976,0.012189552,0.00054475106,-0.0004166934,-0.00028855354,-0.2234592,-0.09217755,0.03435928,1.6079502,-0.0020639303,488.11032,5.940965,0.49545845,0.46234837,0.19163562,0.13158178,inf,inf,inf,inf,1,1,1,1,2,0,2,1,3,1,1,1,0,0
38736000,38736000,904000,47.3977508,8.5456073,-0.70019406,0.069408454,-5.822638,-0.011039297,0.00741849,0.0,-1.8146886,-0.041587587,0.068670295,0.0006305571,0.00054475106,-0.0004166934,-0.00028855354,0.77009493,-0.07622048,-0.02643652,1.6085393,-0.0020639303,488.11032,5.94367,0.46292505,0.45747384,0.16957521,0.12797408,inf,inf,inf,inf,1,1,1,1,2,0,2,1,3,1,1,1,0,0
39240000,39240000,904000,47.3977508,8.5456073,-1.5033293,0.07168715,-5.8420177,-0.011039297,0.00741849,0.0,-1.2143549,-0.05447478,0.074146636,-0.009739393,0.00054475106,-0.0004166934,-0.00028855354,1.5314074,5.5661072e-05,0.065025866,1.6085247,-0.0020639303,488.11032,5.9630494,0.4738007,0.45792636,0.16895133,0.12930532,inf,inf,inf,inf,1,1,1,1,2,0,2,1,3,1,1,1,0,0
39736000,39736000,904000,47.3977508,8.5456073,-1.9296801,0.06322391,-5.855772,-0.011039297,0.00741849,0.0,-0.33487806,-0.057361457,0.07394869,-0.01615039,0.00054475106,-0.0004166934,-0.00028855354,1.9738824,0.008682356,0.040525567,1.6085984,-0.0020639303,488.11032,5.976804,0.48410854,0.46170828,0.1745106,0.13087106,inf,inf,inf,inf,1,1,1,1,2,0,2,1,3,1,1,1,0,0
40232000,40232000,904000,47.3977508,8.5456073,-1.8861302,0.055529196,-5.8697863,-0.011039297,0.00741849,0.0,0.6232152,-0.049725745,0.08542283,-0.008552147,0.00054475106,-0.0004166934,-0.00028855354,1.8889637,-0.013380543,0.07975846,1.6091014,-0.0020639303,488.11032,5.990818,0.4948622,0.46157968,0.18709284,0.13172689,inf,inf,inf,inf,1,1,1,1,2,0,2,1,3,1,1,1,0,0
40736000,40736000,904000,47.3977508,8.5456073,-1.3843764,0.047343392,-5.869505,-0.011039297,0.00741849,0.0,1.4390999,-0.047007468,0.10340063,0.011138338,0.00054475106,-0.0004166934,-0.00028855354,1.3877437,-0.023259416,0.005411915,1.6088808,-0.0020639303,488.11032,5.9905367,0.46266022,0.45682445,0.17773499,0.12780611,inf,inf,inf,inf,1,1,1,1,2,0,2,1,3,1,1,1,0,0
41232000,41232000,904000,47.3977508,8.5456073,-0.54261124,0.037929002,-5.874197,-0.011039297,0.00741849,0.0,1.9055294,-0.041825335,0.11741031,0.015145944,0.00054475106,-0.0004166934,-0.00028855354,0.5153811,-0.032735404,0.07571279,1.6089057,-0.0020639303,488.11032,5.995229,0.4726152,0.4605195,0.18290398,0.12924308,inf,inf,inf,inf,1,1,1,1,2,0,2,1,3,1,1,1,0,0
41736000,41736000,904000,47.3977508,8.5456073,0.45223305,0.021451943,-5.8730845,-0.011039297,0.00741849,0.0,1.9031998,-0.0359852,0.12346647,0.015145032,0.00054475106,-0.0004166934,-0.00028855354,-0.49754304,0.059180103,0.045791265,1.6081324,-0.0020639303,488.11032,5.9941163,0.48420587,0.46104977,0.18212739,0.1304961,inf,inf,inf,inf,1,1,1,1,2,0,2,1,3,1,1,1,0,0
42240000,42240000,904000,47.3977508,8.5456073,1.3356012,0.0012294161,-5.861954,-0.011039297,0.00741849,0.0,1.4118842,-0.02605325,0.12626879,0.021561332,0.00054475106,-0.0004166934,-0.00028855354,-1.4318886,0.05464903,0.002798624,1.6078645,-0.0020639303,488.11032,5.982986,0.49618092,0.46559274,0.17895298,0.13235892,inf,inf,inf,inf,1,1,1,1,2,0,2,1,3,1,1,1,0,0
42736000,42736000,904000,47.3977508,8.5456073,1.8907397,-0.0049877535,-5.857177,-0.011039297,0.00741849,0.0,0.58795077,-0.009140973,0.10228425,-0.0010003475,0.00054475106,-0.0004166934,-0.00028855354,-1.941608,0.022161081,-0.07589533,1.6083181,-0.0020639303,488.11032,5.9782085,0.46297106,0.4560737,0.16203497,0.12795095,inf,inf,inf,inf,1,1,1,1,2,0,2,1,3,1,1,1,0,0
43232000,43232000,904000,47.3977508,8.5456073,1.9896603,-0.0054147025,-5.8684216,-0.011039297,0.00741849,0.0,-0.3772833,-0.00087811344,0.09030468,-0.016541285,0.00054475106,-0.0004166934,-0.00028855354,-1.9585333,-0.0007327471,0.058011148,1.6083556,-0.0020639303,488.11032,5.9894533,0.47258374,0.45985895,0.1693394,0.12942743,inf,inf,inf,inf,1,1,1,1,2,0,2,1,3,1,1,1,0,0
43736000,43736000,904000,47.3977508,8.5456073,1.6051191,-0.0017344677,-5.868283,-0.011039297,0.00741849,0.0,-1.262573,-0.00066757086,0.10488993,0.0036407523,0.00054475106,-0.0004166934,-0.00028855354,-1.5631969,-0.0116480505,0.0010952352,1.6091832,-0.0020639303,488.11032,5.9893146,0.48333168,0.4603565,0.17989066,0.13041575,inf,inf,inf,inf,1,1,1,1,2,0,2,1,3,1,1,1,0,0
44240000,44240000,904000,47.3977508,8.5456073,0.82460934,0.00171268,-5.861043,-0.011039297,0.00741849,0.0,-1.8480451,-0.0012674863,0.11289396,0.015338623,0.00054475106,-0.0004166934,-0.00028855354,-0.74490136,0.0066687493,0.06511062,1.6094059,-0.0020639303,488.11032,5.9820747,0.4948729,0.46480343,0.18741561,0.13198876,inf,inf,inf,inf,1,1,1,1,2,0,2,1,3,1,1,1,0,0
44736000,44736000,904000,47.3977508,8.5456073,-0.13883056,0.00822754,-5.85511,-0.011039297,0.00741849,0.0,-1.9733006,-0.005201796,0.109933354,0.012384905,0.00054475106,-0.0004166934,-0.00028855354,0.22386621,0.0027283384,0.008100643,1.609554,-0.0020639303,488.11032,5.976142,0.46199223,0.45506448,0.1689158,0.12753755,inf,inf,inf,inf,1,1,1,1,2,0,2,1,3,1,1,1,0,0
45240000,45240000,904000,47.3977508,8.5456073,-1.077413,0.01623654,-5.8539267,-0.011039297,0.00741849,0.0,-1.6130235,-0.0093978075,0.10470879,0.0060086576,0.00054475106,-0.0004166934,-0.00028855354,1.185572,-0.00405233,0.018357297,1.6088506,-0.0020639303,488.11032,5.9749584,0.4725427,0.45936665,0.1682444,0.12940817,inf,inf,inf,inf,1,1,1,1,2,0,2,1,3,1,1,1,0,0
45736000,45736000,904000,47.3977508,8.5456073,-1.7435261,0.028321736,-5.853001,-0.011039297,0.00741849,0.0,-0.87254524,-0.010625449,0.08944827,-0.008010903,0.00054475106,-0.0004166934,-0.00028855354,1.802369,-0.0099108,0.04397798,1.6084327,-0.0020639303,488.11032,5.974033,0.48270583,0.45913643,0.17010145,0.13051616,inf,inf,inf,inf,1,1,1,1,2,0,2,1,3,1,1,1,0,0
46232000,46232000,904000,47.3977508,8.5456073,-1.9810175,0.040623903,-5.866527,-0.011039297,0.00741849,0.0,0.07766386,-0.019085543,0.07677548,-0.024257492,0.00054475106,-0.0004166934,-0.00028855354,1.9564576,-0.05696015,0.029181128,1.6081936,-0.0020639303,488.11032,5.987559,0.49337032,0.46286327,0.17877483,0.13198881,inf,inf,inf,inf,1,1,1,1,2,0,2,1,3,1,1,1,0,0
46736000,46736000,904000,47.3977508,8.5456073,-1.725713,0.047716387,-5.88064,-0.011039297,0.00741849,0.0,1.013446,-0.02651261,0.10004948,-0.0052058343,0.00054475106,-0.0004166934,-0.00028855354,1.7215257,-0.03158784,0.09536556,1.6083642,-0.0020639303,488.11032,6.001672,0.46166947,0.45782942,0.171591,0.12798043,inf,inf,inf,inf,1,1,1,1,2,0,2,1,3,1,1,1,0,0
47232000,47232000,904000,47.3977508,8.5456073,-1.0469699,0.045073863,-5.8829327,-0.011039297,0.00741849,0.0,1.6910269,-0.03494188,0.12073884,0.012278533,0.00054475106,-0.0004166934,-0.00028855354,0.98899305,0.014856501,0.06186496,1.6082149,-0.0020639303,488.11032,6.0039644,0.471381,0.45751756,0.17986913,0.12877998,inf,inf,inf,inf,1,1,1,1,2,0,2,1,3,1,1,1,0,0
47736000,47736000,904000,47.3977508,8.5456073,-0.09735412,0.030991782,-5.869105,-0.011039297,0.00741849,0.0,1.9618548,-0.035951607,0.124639235,0.021176899,0.00054475106,-0.0004166934,-0.00028855354,0.040787213,0.03861429,-0.029447487,1.6082859,-0.0020639303,488.11032,5.9901366,0.48275197,0.46199992,0.182868,0.13046265,inf,inf,inf,inf,1,1,1,1,2,0,2,1,3,1,1,1,0,0
48232000,48232000,904000,47.3977508,8.5456073,0.87319255,0.019082999,-5.857533,-0.011039297,0.00741849,0.0,1.7438257,-0.028188627,0.11812443,0.018424971,0.00054475106,-0.0004166934,-0.00028855354,-0.96814555,-0.0398418,0.043588687,1.6080955,-0.0020639303,488.11032,5.9785647,0.4937881,0.4618209,0.18090798,0.13156007,inf,inf,inf,inf,1,1,1,1,2,0,2,1,3,1,1,1,0,0
48736000,48736000,904000,47.3977508,8.5456073,1.6444824,0.017910477,-5.849823,-0.011039297,0.00741849,0.0,1.0735956,-0.02028155,0.11036543,0.012252877,0.00054475106,-0.0004166934,-0.00028855354,-1.7436429,0.0009968352,-0.014123506,1.6080818,-0.0020639303,488.11032,5.9708548,0.46189535,0.45695388,0.16170143,0.1279396,inf,inf,inf,inf,1,1,1,1,2,0,2,1,3,1,1,1,0,0
49240000,49240000,904000,47.3977508,8.5456073,2.0116785,0.02344229,-5.8463354,-0.011039297,0.00741849,0.0,0.13891771,-0.01514129,0.074149355,-0.019391308,0.00054475106,-0.0004166934,-0.00028855354,-1.9969008,0.002869332,-0.007505528,1.6084265,-0.0020639303,488.11032,5.967367,0.47239828,0.4573232,0.16561785,0.12910937,inf,inf,inf,inf,1,1,1,1,2,0,2,1,3,1,1,1,0,0
49736000,49736000,904000,47.3977508,8.5456073,1.88302,0.023906006,-5.8563433,-0.011039297,0.00741849,0.0,-0.8112896,-0.01610952,0.084031224,-0.01028938,0.00054475106,-0.0004166934,-0.00028855354,-1.850471,0.00994699,0.10517984,1.6086638,-0.0020639303,488.11032,5.977375,0.48222956,0.46088424,0.17378213,0.13047111,inf,inf,inf,inf,1,1,1,1,2,0,2,1,3,1,1,1,0,0
50232000,50232000,904000,47.3977508,8.5456073,1.3154004,0.021690475,-5.8618174,-0.011039297,0.00741849,0.0,-1.5720443,-0.017591245,0.102896325,0.0054050586,0.00054475106,-0.0004166934,-0.00028855354,-1.2478658,-0.003387322,0.09450502,1.6089052,-0.0020639303,488.11032,5.982849,0.49254146,0.46445584,0.18234503,0.13178985,inf,inf,inf,inf,1,1,1,1,2,0,2,1,3,1,1,1,0,0
50736000,50736000,904000,47.3977508,8.5456073,0.42607415,0.019119177,-5.8594337,-0.011039297,0.00741849,0.0,-1.9711832,-0.01676869,0.11323154,0.013840686,0.00054475106,-0.0004166934,-0.00028855354,-0.3437821,-0.004171146,0.025502404,1.6096961,-0.0020639303,488.11032,5.9804654,0.4611645,0.4592493,0.16826317,0.12794948,inf,inf,inf,inf,1,1,1,1,2,0,2,1,3,1,1,1,0,0
51240000,51240000,904000,47.3977508,8.5456073,-0.56264585,0.016781699,-5.8660564,-0.011039297,0.00741849,0.0,-1.8930639,-0.017023873,0.11210651,0.0030294245,0.00054475106,-0.0004166934,-0.00028855354,0.65008813,-0.019505052,0.021913087,1.6092764,-0.0020639303,488.11032,5.987088,0.4716004,0.4594123,0.16938882,0.129214,inf,inf,inf,inf,1,1,1,1,2,0,2,1,3,1,1,1,0,0
51736000,51736000,904000,47.3977508,8.5456073,-1.3985269,0.017685566,-5.864291,-0.011039297,0.00741849,0.0,-1.3507626,-0.010822715,0.11300154,0.004654706,0.00054475106,-0.0004166934,-0.00028855354,1.489509,-0.013630021,0.029270535,1.6086322,-0.0020639303,488.11032,5.985323,0.48179397,0.46284783,0.16965856,0.13085835,inf,inf,inf,inf,1,1,1,1,2,0,2,1,3,1,1,1,0,0
52232000,52232000,904000,47.3977508,8.5456073,-1.8935913,0.021255415,-5.864379,-0.011039297,0.00741849,0.0,-0.49133104,-0.011981571,0.09275332,-0.01207286,0.00054475106,-0.0004166934,-0.00028855354,1.9222329,-0.0058705043,-0.008903443,1.60864,-0.0020639303,488.11032,5.9854107,0.49236935,0.4663423,0.17411967,0.13238713,inf,inf,inf,inf,1,1,1,1,2,0,2,1,3,1,1,1,0,0
52736000,52736000,904000,47.3977508,8.5456073,-1.9201261,0.021168383,-5.865561,-0.011039297,0.00741849,0.0,0.49408853,-0.01624224,0.08167517,-0.014577704,0.00054475106,-0.0004166934,-0.00028855354,1.9605471,-0.030728696,0.019761732,1.6081706,-0.0020639303,488.11032,5.986593,0.46092737,0.45704484,0.16599871,0.12786685,inf,inf,inf,inf,1,1,1,1,2,0,2,1,3,1,1,1,0,0
53232000,53232000,904000,47.3977508,8.5456073,-1.4793891,0.017372621,-5.87288,-0.011039297,0.00741849,0.0,1.3352123,-0.019865979,0.09686118,-0.002001084,0.00054475106,-0.0004166934,-0.00028855354,1.4173367,0.002954475,0.060671005,1.6081685,-0.0020639303,488.11032,5.9939117,0.47060418,0.46034855,0.17563692,0.12914126,inf,inf,inf,inf,1,1,1,1,2,0,2,1,3,1,1,1,0,0
53736000,53736000,904000,47.3977508,8.5456073,-0.6625835,0.008594698,-5.8694396,-0.011039297,0.00741849,0.0,1.8601816,-0.01627236,0.11488484,0.015946753,0.00054475106,-0.0004166934,-0.00028855354,0.60449076,0.0020668812,0.06694346,1.6082237,-0.0020639303,488.11032,5.9904714,0.48187917,0.46443698,0.1821372,0.13066062,inf,inf,inf,inf,1,1,1,1,2,0,2,1,3,1,1,1,0,0
54232000,54232000,904000,47.3977508,8.5456073,0.30500504,0.005906342,-5.8581266,-0.011039297,0.00741849,0.0,1.9190462,-0.007813861,0.11490327,0.019518938,0.00054475106,-0.0004166934,-0.00028855354,-0.38986632,0.018417165,-0.0027883796,1.6079197,-0.0020639303,488.11032,5.9791584,0.49310923,0.4637538,0.18319091,0.13161519,inf,inf,inf,inf,1,1,1,1,2,0,2,1,3,1,1,1,0,0
54736000,54736000,904000,47.3977508,8.5456073,1.2120459,-2.849019e-05,-5.8473268,-0.011039297,0.00741849,0.0,1.4933714,-0.0049483725,0.10673697,0.014673151,0.00054475106,-0.0004166934,-0.00028855354,-1.2369689,0.010414078,-0.028573906,1.6078106,-0.0020639303,488.11032,5.9683585,0.4613112,0.45844647,0.16357197,0.12794419,inf,inf,inf,inf,1,1,1,1,2,0,2,1,3,1,1,1,0,0
55232000,55232000,904000,47.3977508,8.5456073,1.8302494,-0.007018414,-5.850733,-0.011039297,0.00741849,0.0,0.71637315,2.8352195e-05,0.09334927,-0.0049062865,0.00054475106,-0.0004166934,-0.00028855354,-1.8803471,0.03268712,-0.04331581,1.6082504,-0.0020639303,488.11032,5.9717646,0.47115654,0.46173444,0.16443622,0.12952334,inf,inf,inf,inf,1,1,1,1,2,0,2,1,3,1,1,1,0,0
55736000,55736000,904000,47.3977508,8.5456073,2.0011668,-0.0008125652,-5.8568044,-0.011039297,0.00741849,0.0,-0.26292622,0.0043625096,0.07639111,-0.020650709,0.00054475106,-0.0004166934,-0.00028855354,-1.9846189,-0.0016259872,0.06652064,1.6086164,-0.0020639303,488.11032,5.977836,0.48196307,0.46177924,0.17009477,0.13059129,inf,inf,inf,inf,1,1,1,1,2,0,2,1,3,1,1,1,0,0
56232000,56232000,904000,47.3977508,8.5456073,1.6884075,0.0040477403,-5.850362,-0.011039297,0.00741849,0.0,-1.1606923,0.0038292257,0.086727194,0.0022042003,0.00054475106,-0.0004166934,-0.00028855354,-1.6554011,0.016300313,0.04337262,1.6087418,-0.0020639303,488.11032,5.9713936,0.4923612,0.46516085,0.17839575,0.13191201,inf,inf,inf,inf,1,1,1,1,2,0,2,1,3,1,1,1,0,0
56736000,56736000,904000,47.3977508,8.5456073,0.965653,0.010124595,-5.836826,-0.011039297,0.00741849,0.0,-1.7979493,0.001605259,0.08723719,0.013278171,0.00054475106,-0.0004166934,-0.00028855354,-0.9279739,0.004814355,0.0012721865,1.6093742,-0.0020639303,488.11032,5.9578576,0.46099013,0.45586357,0.1670519,0.12742926,inf,inf,inf,inf,1,1,1,1,2,0,2,1,3,1,1,1,0,0
57232000,57232000,904000,47.3977508,8.5456073,0.02637595,0.017443264,-5.814135,-0.011039297,0.00741849,0.0,-1.9964082,-0.002928841,0.071525544,0.012126025,0.00054475106,-0.0004166934,-0.00028855354,0.08569657,-0.021994345,-0.04035793,1.6093915,-0.0020639303,488.11032,5.935167,0.47048646,0.45922238,0.17015056,0.12897688,inf,inf,inf,inf,1,1,1,1,2,0,2,1,3,1,1,1,0,0
57736000,57736000,904000,47.3977508,8.5456073,-0.9380721,0.024722839,-5.81028,-0.011039297,0.00741849,0.0,-1.710336,-0.0043542995,0.05717964,-0.0017452843,0.00054475106,-0.0004166934,-0.00028855354,1.1076236,-0.0108169615,0.016968695,1.6089996,-0.0020639303,488.11032,5.9313116,0.4814823,0.45955178,0.17115115,0.130339,inf,inf,inf,inf,1,1,1,1,2,0,2,1,3,1,1,1,0,0
58232000,58232000,904000,47.3977508,8.5456073,-1.6518296,0.03303722,-5.820402,-0.011039297,0.00741849,0.0,-1.00256,-0.012271387,0.05852113,-0.0085639125,0.00054475106,-0.0004166934,-0.00028855354,1.7458194,-0.01597771,0.012726522,1.6086116,-0.0020639303,488.11032,5.941434,0.49209884,0.46327192,0.17300175,0.13203968,inf,inf,inf,inf,1,1,1,1,2,0,2,1,3,1,1,1,0,0
58736000,58736000,904000,47.3977508,8.5456073,-1.9629277,0.030471992,-5.831582,-0.011039297,0.00741849,0.0,-0.045761805,-0.018760689,0.04703399,-0.02311324,0.00054475106,-0.0004166934,-0.00028855354,2.0088654,-0.013490046,0.0099763265,1.6086173,-0.0020639303,488.11032,5.952614,0.46074232,0.45826688,0.16240725,0.12823623,inf,inf,inf,inf,1,1,1,1,2,0,2,1,3,1,1,1,0,0
59232000,59232000,904000,47.3977508,8.5456073,-1.81104,0.019816019,-5.8423605,-0.011039297,0.00741849,0.0,0.8932589,-0.021065949,0.058172725,-0.012693893,0.00054475106,-0.0004166934,-0.00028855354,1.7889277,-0.015275174,0.07119029,1.6081253,-0.0020639303,488.11032,5.9633923,0.4703992,0.4578577,0.17154825,0.12907226,inf,inf,inf,inf,1,1,1,1,2,0,2,1,3,1,1,1,0,0
59736000,59736000,904000,47.3977508,8.5456073,-1.2047099,0.0052452185,-5.8354807,-0.011039297,0.00741849,0.0,1.6437556,-0.012057093,0.07645993,0.0121899545,0.00054475106,-0.0004166934,-0.00028855354,1.1469063,-0.010544696,0.030456109,1.6079292,-0.0020639303,488.11032,5.9565125,0.48155338,0.462089,0.1803627,0.13054116,inf,inf,inf,inf,1,1,1,1,2,0,2,1,3,1,1,1,0,0
60232000,60232000,904000,47.3977508,8.5456073,-0.30351272,-0.0043284628,-5.831588,-0.011039297,0.00741849,0.0,1.9867728,-0.004269021,0.082563445,0.015563367,0.00054475106,-0.0004166934,-0.00028855354,0.22538924,0.019777201,0.044962388,1.6075416,-0.0020639303,488.11032,5.9526196,0.49273908,0.46564633,0.18462805,0.13194856,inf,inf,inf,inf,1,1,1,1,2,0,2,1,3,1,1,1,0,0
60736000,60736000,904000,47.3977508,8.5456073,0.67284036,-0.00793681,-5.8320026,-0.011039297,0.00741849,0.0,1.8421,0.0041423594,0.0847051,0.011183327,0.00054475106,-0.0004166934,-0.00028855354,-0.75477654,0.007677008,0.0061634923,1.6077507,-0.0020639303,488.11032,5.9530344,0.4610452,0.45643872,0.16594481,0.12765656,inf,inf,inf,inf,1,1,1,1,2,0,2,1,3,1,1,1,0,0
61232000,61232000,904000,47.3977508,8.5456073,1.4621779,-0.016378276,-5.8342876,-0.011039297,0.00741849,0.0,1.2524534,0.009799294,0.08820459,0.008337592,0.00054475106,-0.0004166934,-0.00028855354,-1.5671757,0.009021169,-0.0040484588,1.6074138,-0.0020639303,488.11032,5.9553194,0.47097915,0.45979917,0.16569518,0.1292494,inf,inf,inf,inf,1,1,1,1,2,0,2,1,3,1,1,1,0,0
61736000,61736000,904000,47.3977508,8.5456073,1.8928282,-0.018189942,-5.8334155,-0.011039297,0.00741849,0.0,0.35248235,0.013005197,0.06871672,-0.0094777495,0.00054475106,-0.0004166934,-0.00028855354,-1.9588616,0.014792224,-0.029321758,1.6081829,-0.0020639303,488.11032,5.9544473,0.4819443,0.4599851,0.16849093,0.13039532,inf,inf,inf,inf,1,1,1,1,2,0,2,1,3,1,1,1,0,0
62240000,62240000,904000,47.3977508,8.5456073,1.8423765,-0.015670678,-5.8332777,-0.011039297,0.00741849,0.0,-0.61560005,0.016029073,0.059747156,-0.010436625,0.00054475106,-0.0004166934,-0.00028855354,-1.8540772,-0.022080537,0.01906324,1.6089448,-0.0020639303,488.11032,5.9543095,0.49314684,0.4643364,0.17515777,0.131978,inf,inf,inf,inf,1,1,1,1,2,0,2,1,3,1,1,1,0,0
62736000,62736000,904000,47.3977508,8.5456073,1.3340635,-0.008386768,-5.8278728,-0.011039297,0.00741849,0.0,-1.4170185,0.012904462,0.06785633,0.0050170906,0.00054475106,-0.0004166934,-0.00028855354,-1.308716,0.009657756,-0.0034747643,1.6091294,-0.0020639303,488.11032,5.9489045,0.4610362,0.45469338,0.16469635,0.12737474,inf,inf,inf,inf,1,1,1,1,2,0,2,1,3,1,1,1,0,0
63240000,63240000,904000,47.3977508,8.5456073,0.4768591,0.005824919,-5.8277845,-0.011039297,0.00741849,0.0,-1.8758402,0.011901146,0.07587156,0.009917376,0.00054475106,-0.0004166934,-0.00028855354,-0.44849786,-0.006998292,0.048855316,1.6092783,-0.0020639303,488.11032,5.9488163,0.47126448,0.4589959,0.16998802,0.12906359,inf,inf,inf,inf,1,1,1,1,2,0,2,1,3,1,1,1,0,0
63736000,63736000,904000,47.3977508,8.5456073,-0.49287856,0.016816594,-5.8215814,-0.011039297,0.00741849,0.0,-1.8623455,0.0040431647,0.070317686,0.006010814,0.00054475106,-0.0004166934,-0.00028855354,0.5241552,-0.040600147,-0.032857057,1.609465,-0.0020639303,488.11032,5.942613,0.48133323,0.45874614,0.1721177,0.13020109,inf,inf,inf,inf,1,1,1,1,2,0,2,1,3,1,1,1,0,0
64232000,64232000,904000,47.3977508,8.5456073,-1.3488889,0.029720727,-5.819686,-0.011039297,0.00741849,0.0,-1.3807322,0.0007250884,0.06749732,0.00317072,0.00054475106,-0.0004166934,-0.00028855354,1.4285374,-0.03201331,-0.038955357,1.6084828,-0.0020639303,488.11032,5.9407177,0.4919359,0.46248877,0.17339598,0.13192013,inf,inf,inf,inf,1,1,1,1,2,0,2,1,3,1,1,1,0,0
64736000,64736000,904000,47.3977508,8.5456073,-1.8986354,0.039687224,-5.8213906,-0.011039297,0.00741849,0.0,-0.54722476,-0.00727124,0.054962464,-0.0085935965,0.00054475106,-0.0004166934,-0.00028855354,1.942775,-0.04535334,-0.023947095,1.6084867,-0.0020639303,488.11032,5.9424224,0.46062678,0.4576237,0.16050942,0.12822522,inf,inf,inf,inf,1,1,1,1,2,0,2,1,3,1,1,1,0,0
65240000,65240000,904000,47.3977508,8.5456073,-1.987843,0.04042435,-5.823011,-0.011039297,0.00741849,0.0,0.42840493,-0.011668645,0.033496972,-0.022449587,0.00054475106,-0.0004166934,-0.00028855354,1.9167069,-0.0049396036,0.037707385,1.6082872,-0.0020639303,488.11032,5.9440427,0.471114,0.45808673,0.16832855,0.12932634,inf,inf,inf,inf,1,1,1,1,2,0,2,1,3,1,1,1,0,0
65736000,65736000,904000,47.3977508,8.5456073,-1.6042728,0.032621704,-5.8245225,-0.011039297,0.00741849,0.0,1.2908229,-0.017027248,0.047401737,-0.003251914,0.00054475106,-0.0004166934,-0.00028855354,1.5534197,0.0006290356,0.030402092,1.6078322,-0.0020639303,488.11032,5.9455543,0.4813558,0.46176097,0.17701052,0.13063724,inf,inf,inf,inf,1,1,1,1,2,0,2,1,3,1,1,1,0,0
66240000,66240000,904000,47.3977508,8.5456073,-0.82312477,0.01328464,-5.8181553,-0.011039297,0.00741849,0.0,1.866924,-0.014426405,0.05975459,0.013169697,0.00054475106,-0.0004166934,-0.00028855354,0.77505994,0.023228625,0.04604924,1.6078391,-0.0020639303,488.11032,5.939187,0.49320784,0.46235618,0.18384738,0.13164496,inf,inf,inf,inf,1,1,1,1,2,0,2,1,3,1,1,1,0,0
66736000,66736000,904000,47.3977508,8.5456073,0.14190237,-0.0045402045,-5.800918,-0.011039297,0.00741849,0.0,1.9880313,-0.0054844692,0.054620035,0.017280776,0.00054475106,-0.0004166934,-0.00028855354,-0.23860745,0.076001406,-0.026599502,1.6073939,-0.0020639303,488.11032,5.92195,0.46075827,0.45689338,0.16703089,0.12775704,inf,inf,inf,inf,1,1,1,1,2,0,2,1,3,1,1,1,0,0
67232000,67232000,904000,47.3977508,8.5456073,1.0604526,-0.013421508,-5.775628,-0.011039297,0.00741849,0.0,1.6265112,0.0084302025,0.045120228,0.023397174,0.00054475106,-0.0004166934,-0.00028855354,-1.148838,0.035285003,-0.053279098,1.6073684,-0.0020639303,488.11032,5.89666,0.47070992,0.45672446,0.16737308,0.12890898,inf,inf,inf,inf,1,1,1,1,2,0,2,1,3,1,1,1,0,0
67736000,67736000,904000,47.3977508,8.5456073,1.7199663,-0.016803673,-5.7524085,-0.011039297,0.00741849,0.0,0.8700886,0.022061594,0.0074477005,0.0011591696,0.00054475106,-0.0004166934,-0.00028855354,-1.8400565,0.05444462,-0.117894255,1.6076957,-0.0020639303,488.11032,5.8734403,0.4818101,0.46128163,0.1688866,0.13075599,inf,inf,inf,inf,1,1,1,1,2,0,2,1,3,1,1,1,0,0
68240000,68240000,904000,47.3977508,8.5456073,1.9516686,-0.015967907,-5.7479672,-0.011039297,0.00741849,0.0,-0.09160965,0.024017585,-0.029502766,-0.026584702,0.00054475106,-0.0004166934,-0.00028855354,-1.957646,-0.004264875,-0.039265487,1.6081047,-0.0020639303,488.11032,5.868999,0.49313784,0.46179426,0.17373551,0.13187039,inf,inf,inf,inf,1,1,1,1,2,0,2,1,3,1,1,1,0,0
68736000,68736000,904000,47.3977508,8.5456073,1.7118441,-0.01758913,-5.7481437,-0.011039297,0.00741849,0.0,-1.0094308,0.021104824,-0.023139168,-0.011942837,0.00054475106,-0.0004166934,-0.00028855354,-1.7247329,0.011464653,0.014121643,1.6087657,-0.0020639303,488.11032,5.8691754,0.46093127,0.45615804,0.16315427,0.12775184,inf,inf,inf,inf,1,1,1,1,2,0,2,1,3,1,1,1,0,0
69232000,69232000,904000,47.3977508,8.5456073,1.0518917,-0.019129043,-5.739718,-0.011039297,0.00741849,0.0,-1.6941541,0.022755714,-0.019133246,-0.0001936279,0.00054475106,-0.0004166934,-0.00028855354,-1.0443662,-0.013181808,0.02460461,1.6093339,-0.0020639303,488.11032,5.8607497,0.4703374,0.45979002,0.16938858,0.12913415,inf,inf,inf,inf,1,1,1,1,2,0,2,1,3,1,1,1,0,0
69736000,69736000,904000,47.3977508,8.5456073,0.11940145,-0.012140099,-5.7456822,-0.011039297,0.00741849,0.0,-1.9636995,0.024490014,-0.009005901,0.0013364345,0.00054475106,-0.0004166934,-0.00028855354,-0.023814091,-0.004441739,-0.014241784,1.6094278,-0.0020639303,488.11032,5.866714,0.48118252,0.46019298,0.1734685,0.13028626,inf,inf,inf,inf,1,1,1,1,2,0,2,1,3,1,1,1,0,0
70232000,70232000,904000,47.3977508,8.5456073,-0.82130945,0.0006576486,-5.7450066,-0.011039297,0.00741849,0.0,-1.7444444,0.018759618,-0.0055251825,0.0035122884,0.00054475106,-0.0004166934,-0.00028855354,0.91507393,0.0014977412,-0.015108845,1.609183,-0.0020639303,488.11032,5.8660383,0.4917904,0.46391287,0.17498505,0.1319481,inf,inf,inf,inf,1,1,1,1,2,0,2,1,3,1,1,1,0,0
70736000,70736000,904000,47.3977508,8.5456073,-1.5772122,0.01602342,-5.7399454,-0.011039297,0.00741849,0.0,-1.0904758,0.010066531,-0.017994989,-0.005874645,0.00054475106,-0.0004166934,-0.00028855354,1.6539665,-0.013752563,-0.10989606,1.6086105,-0.0020639303,488.11032,5.860977,0.46063033,0.45512775,0.1602928,0.12781702,inf,inf,inf,inf,1,1,1,1,2,0,2,1,3,1,1,1,0,0
71232000,71232000,904000,47.3977508,8.5456073,-1.9397964,0.019507468,-5.7497597,-0.011039297,0.00741849,0.0,-0.18333663,-0.0028682477,-0.028039835,-0.018229669,0.00054475106,-0.0004166934,-0.00028855354,1.983034,-0.025063416,-0.034772787,1.6086004,-0.0020639303,488.11032,5.8707914,0.47030142,0.45881164,0.16528665,0.1293742,inf,inf,inf,inf,1,1,1,1,2,0,2,1,3,1,1,1,0,0
71736000,71736000,904000,47.3977508,8.5456073,-1.8290813,0.019959707,-5.7504754,-0.011039297,0.00741849,0.0,0.7796825,-0.0076678684,-0.029754983,-0.011432672,0.00054475106,-0.0004166934,-0.00028855354,1.8123565,-0.03944637,-0.012991949,1.6081389,-0.0020639303,488.11032,5.871507,0.4812916,0.45931116,0.17356056,0.13041091,inf,inf,inf,inf,1,1,1,1,2,0,2,1,3,1,1,1,0,0
72232000,72232000,904000,47.3977508,8.5456073,-1.2797725,0.021441858,-5.7493024,-0.011039297,0.00741849,0.0,1.5406119,-0.009690733,-0.018631821,0.0020720335,0.00054475106,-0.0004166934,-0.00028855354,1.214361,0.005266425,0.03074575,1.6079963,-0.0020639303,488.11032,5.870334,0.49208087,0.46307382,0.18140338,0.13173561,inf,inf,inf,inf,1,1,1,1,2,0,2,1,3,1,1,1,0,0
72736000,72736000,904000,47.3977508,8.5456073,-0.4073534,0.014797547,-5.7399807,-0.011039297,0.00741849,0.0,1.944824,-0.012299823,-0.011746267,0.012121431,0.00054475106,-0.0004166934,-0.00028855354,0.32685247,0.04581215,-0.016189178,1.6078773,-0.0020639303,488.11032,5.8610125,0.4606506,0.45418754,0.1675133,0.12734398,inf,inf,inf,inf,1,1,1,1,2,0,2,1,3,1,1,1,0,0
73240000,73240000,904000,47.3977508,8.5456073,0.5629983,0.009455876,-5.7340837,-0.011039297,0.00741849,0.0,1.8646563,-0.008303399,-0.015713725,0.0068804864,0.00054475106,-0.0004166934,-0.00028855354,-0.6423363,-0.0039623114,-0.01443643,1.6073737,-0.0020639303,488.11032,5.8551154,0.47139457,0.45852187,0.16952501,0.12913373,inf,inf,inf,inf,1,1,1,1,2,0,2,1,3,1,1,1,0,0
73736000,73736000,904000,47.3977508,8.5456073,1.3888263,0.008258631,-5.7379713,-0.011039297,0.00741849,0.0,1.3279974,-0.0027717836,-0.011175177,0.0036223268,0.00054475106,-0.0004166934,-0.00028855354,-1.4869794,-0.0112236,-0.022212042,1.6079178,-0.0020639303,488.11032,5.859003,0.48173773,0.46226197,0.17007907,0.13081403,inf,inf,inf,inf,1,1,1,1,2,0,2,1,3,1,1,1,0,0
74232000,74232000,904000,47.3977508,8.5456073,1.8861996,0.011043763,-5.740244,-0.011039297,0.00741849,0.0,0.47134292,-0.0023697333,-0.024184985,-0.011075901,0.00054475106,-0.0004166934,-0.00028855354,-1.9955261,-0.012831208,-0.039673407,1.6081233,-0.0020639303,488.11032,5.8612757,0.49227965,0.46201357,0.17248258,0.13183932,inf,inf,inf,inf,1,1,1,1,2,0,2,1,3,1,1,1,0,0
74736000,74736000,904000,47.3977508,8.5456073,1.9229808,0.015750539,-5.7515583,-0.011039297,0.00741849,0.0,-0.51767385,-0.0020201663,-0.029556131,-0.01905678,0.00054475106,-0.0004166934,-0.00028855354,-1.9166145,-0.03231785,0.042446885,1.6083916,-0.0020639303,488.11032,5.87259,0.46094447,0.45705375,0.1612389,0.1279587,inf,inf,inf,inf,1,1,1,1,2,0,2,1,3,1,1,1,0,0
75236000,75232000,904000,47.3977508,8.5456073,1.5022587,0.017198263,-5.764608,-0.011039297,0.00741849,0.0,-1.3636361,-0.0037022098,-0.0037532216,-0.0010146294,0.00054475106,-0.0004166934,-0.00028855354,-1.5101013,0.0006233458,0.05021132,1.6091406,-0.0020639303,488.11032,5.8856397,0.470371,0.4605847,0.1676942,0.1293038,inf,inf,inf,inf,1,1,1,1,2,0,2,1,3,1,1,1,0,0
75740000,75736000,904000,47.3977508,8.5456073,0.70015234,0.02295947,-5.7627664,-0.011039297,0.00741849,0.0,-1.9003305,-0.0035571104,0.013254484,0.014744657,0.00054475106,-0.0004166934,-0.00028855354,-0.7271543,0.026218796,-0.0015906988,1.609208,-0.0020639303,488.11032,5.883798,0.48126066,0.46084645,0.17347838,0.13035014,inf,inf,inf,inf,1,1,1,1,2,0,2,1,3,1,1,1,0,0
76236000,76232000,904000,47.3977508,8.5456073,-0.27203417,0.03197547,-5.755604,-0.011039297,0.00741849,0.0,-1.9743391,-0.0048539084,0.0054558637,0.008366491,0.00054475106,-0.0004166934,-0.00028855354,0.35013625,-0.05501609,-0.0648545,1.6092207,-0.0020639303,488.11032,5.8766356,0.4919412,0.46447927,0.17642426,0.13193387,inf,inf,inf,inf,1,1,1,1,2,0,2,1,3,1,1,1,0,0
76732000,76728000,904000,47.3977508,8.5456073,-1.1734397,0.03366984,-5.752746,-0.011039297,0.00741849,0.0,-1.5561486,-0.0140193235,0.0027917798,0.006160564,0.00054475106,-0.0004166934,-0.00028855354,1.2874731,-0.03569832,-0.01828931,1.6090921,-0.0020639303,488.11032,5.873778,0.46003467,0.45867485,0.16077898,0.12812006,inf,inf,inf,inf,1,1,1,1,2,0,2,1,3,1,1,1,0,0
77236000,77232000,904000,47.3977508,8.5456073,-1.7818509,0.03440392,-5.749585,-0.011039297,0.00741849,0.0,-0.74634707,-0.01727113,-0.015162365,-0.008710887,0.00054475106,-0.0004166934,-0.00028855354,1.8752631,0.0014103424,-0.07946323,1.6085563,-0.0020639303,488.11032,5.870617,0.4705905,0.4591008,0.16438968,0.1294218,inf,inf,inf,inf,1,1,1,1,2,0,2,1,3,1,1,1,0,0
77740000,77736000,904000,47.3977508,8.5456073,-1.927651,0.031627152,-5.758152,-0.011039297,0.00741849,0.0,0.2281553,-0.019455707,-0.02641792,-0.019540649,0.00054475106,-0.0004166934,-0.00028855354,1.932041,-0.002568573,0.052973624,1.6082704,-0.0020639303,488.11032,5.879184,0.48165354,0.45977926,0.17114139,0.13061145,inf,inf,inf,inf,1,1,1,1,2,0,2,1,3,1,1,1,0,0
78236000,78232000,904000,47.3977508,8.5456073,-1.6072574,0.022213291,-5.773184,-0.011039297,0.00741849,0.0,1.1173997,-0.022462243,-0.0056114076,-0.006695386,0.00054475106,-0.0004166934,-0.00028855354,1.6095539,-0.00583475,0.048729587,1.6082565,-0.0020639303,488.11032,5.8942156,0.492437,0.46378347,0.17910154,0.13203211,inf,inf,inf,inf,1,1,1,1,2,0,2,1,3,1,1,1,0,0
78732000,78728000,904000,47.3977508,8.5456073,-0.9004982,0.005779161,-5.7742834,-0.011039297,0.00741849,0.0,1.7433143,-0.015924264,0.017240772,0.013317247,0.00054475106,-0.0004166934,-0.00028855354,0.88486665,0.030675726,0.025109386,1.6080371,-0.0020639303,488.11032,5.895315,0.46031454,0.45434183,0.16687135,0.12743428,inf,inf,inf,inf,1,1,1,1,2,0,2,1,3,1,1,1,0,0
79236000,79232000,904000,47.3977508,8.5456073,0.04700032,-0.006834064,-5.769256,-0.011039297,0.00741849,0.0,1.9500157,-0.0060451063,0.017500084,0.010722951,0.00054475106,-0.0004166934,-0.00028855354,-0.10444119,0.013981145,-0.012177042,1.6074485,-0.0020639303,488.11032,5.890288,0.47102684,0.45870638,0.17063835,0.12914495,inf,inf,inf,inf,1,1,1,1,2,0,2,1,3,1,1,1,0,0
79732000,79728000,904000,47.3977508,8.5456073,0.96901876,-0.01644556,-5.7712445,-0.011039297,0.00741849,0.0,1.6722194,0.0040792692,0.022720022,0.009922655,0.00054475106,-0.0004166934,-0.00028855354,-1.0358841,0.030526264,0.038607974,1.6073456,-0.0020639303,488.11032,5.8922763,0.48144123,0.45865,0.17178254,0.13030402,inf,inf,inf,inf,1,1,1,1,2,0,2,1,3,1,1,1,0,0
80236000,80232000,904000,47.3977508,8.5456073,1.6625091,-0.018878998,-5.771883,-0.011039297,0.00741849,0.0,0.9709925,0.014940227,0.018220944,0.0019190498,0.00054475106,-0.0004166934,-0.00028855354,-1.675975,0.04744669,0.0035688279,1.6079335,-0.0020639303,488.11032,5.892915,0.4930341,0.46342754,0.17331296,0.13218911,inf,inf,inf,inf,1,1,1,1,2,0,2,1,3,1,1,1,0,0
80732000,80732000,904000,47.3977508,8.5456073,1.9447675,-0.016310384,-5.784635,-0.011039297,0.00741849,0.0,0.040154375,0.01798604,0.008654597,-0.0153782405,0.00054475106,-0.0004166934,-0.00028855354,-1.9553326,0.008902483,0.010047107,1.6082822,-0.0020639303,488.11032,5.905667,0.46086437,0.45411128,0.16014473,0.12771106,inf,inf,inf,inf,1,1,1,1,2,0,2,1,3,1,1,1,0,0
81236000,81236000,904000,47.3977508,8.5456073,1.7673156,-0.010466447,-5.791278,-0.011039297,0.00741849,0.0,-0.90013003,0.015632229,0.01985607,-0.0033851706,0.00054475106,-0.0004166934,-0.00028855354,-1.7519245,-0.028203472,0.027068889,1.6087683,-0.0020639303,488.11032,5.9123096,0.4713433,0.45867828,0.16626345,0.12929218,inf,inf,inf,inf,1,1,1,1,2,0,2,1,3,1,1,1,0,0
81732000,81732000,904000,47.3977508,8.5456073,1.1528254,-0.0066528437,-5.7930923,-0.011039297,0.00741849,0.0,-1.6269828,0.010148698,0.031326015,0.0053920387,0.00054475106,-0.0004166934,-0.00028855354,-1.1369184,-0.021301573,0.081164755,1.6092036,-0.0020639303,488.11032,5.914124,0.4813362,0.4624841,0.17233372,0.13066201,inf,inf,inf,inf,1,1,1,1,2,0,2,1,3,1,1,1,0,0
82236000,82236000,904000,47.3977508,8.5456073,0.23961018,0.0011660246,-5.791006,-0.011039297,0.00741849,0.0,-1.9626522,0.007898703,0.04522314,0.016470132,0.00054475106,-0.0004166934,-0.00028855354,-0.16504921,-0.017977072,0.049743798,1.6095166,-0.0020639303,488.11032,5.912038,0.49274758,0.46309474,0.17691506,0.13180822,inf,inf,inf,inf,1,1,1,1,2,0,2,1,3,1,1,1,0,0
82732000,82732000,904000,47.3977508,8.5456073,-0.7267355,0.012158713,-5.788733,-0.011039297,0.00741849,0.0,-1.8116518,0.004424804,0.04133348,0.010018407,0.00054475106,-0.0004166934,-0.00028855354,0.87745386,-0.06468227,0.008682719,1.6092811,-0.0020639303,488.11032,5.909765,0.4605908,0.45390597,0.16168076,0.12755474,inf,inf,inf,inf,1,1,1,1,2,0,2,1,3,1,1,1,0,0
83236000,83236000,904000,47.3977508,8.5456073,-1.5369076,0.021952884,-5.7980485,-0.011039297,0.00741849,0.0,-1.196609,-0.0026920699,0.035146832,-0.0067082373,0.00054475106,-0.0004166934,-0.00028855354,1.541686,-0.041718256,0.01293607,1.6087319,-0.0020639303,488.11032,5.9190803,0.47105834,0.45862415,0.16436662,0.1295061,inf,inf,inf,inf,1,1,1,1,2,0,2,1,3,1,1,1,0,0
83732000,83732000,904000,47.3977508,8.5456073,-1.9663535,0.027210953,-5.806804,-0.011039297,0.00741849,0.0,-0.30785033,-0.0050929706,0.03305006,-0.011777281,0.00054475106,-0.0004166934,-0.00028855354,2.0144753,-0.009826456,-0.03325473,1.6084236,-0.0020639303,488.11032,5.927836,0.48117235,0.45862886,0.16905186,0.13056055,inf,inf,inf,inf,1,1,1,1,2,0,2,1,3,1,1,1,0,0
84236000,84236000,904000,47.3977508,8.5456073,-1.9167362,0.028641047,-5.8224506,-0.011039297,0.00741849,0.0,0.6773234,-0.013251323,0.03699951,-0.013080128,0.00054475106,-0.0004166934,-0.00028855354,1.9057609,-0.0015291442,0.07704179,1.6082848,-0.0020639303,488.11032,5.9434824,0.4926876,0.46325642,0.17686166,0.13213347,inf,inf,inf,inf,1,1,1,1,2,0,2,1,3,1,1,1,0,0
84740000,84740000,904000,47.3977508,8.5456073,-1.3957665,0.023299018,-5.8167176,-0.011039297,0.00741849,0.0,1.5003514,-0.015568704,0.052119706,0.0091701355,0.00054475106,-0.0004166934,-0.00028855354,1.388598,0.022783292,0.041918825,1.6081606,-0.0020639303,488.11032,5.9377494,0.46129337,0.45830253,0.16641039,0.12812041,inf,inf,inf,inf,1,1,1,1,2,0,2,1,3,1,1,1,0,0
85236000,85236000,904000,47.3977508,8.5456073,-0.5540064,0.02217121,-5.819711,-0.011039297,0.00741849,0.0,1.9543185,-0.01106521,0.06485916,0.013810554,0.00054475106,-0.0004166934,-0.00028855354,0.5010535,-0.016890887,0.030389985,1.6080703,-0.0020639303,488.11032,5.940743,0.47111568,0.45796824,0.17133662,0.12898128,inf,inf,inf,inf,1,1,1,1,2,0,2,1,3,1,1,1,0,0
85732000,85732000,904000,47.3977508,8.5456073,0.4267889,0.019789118,-5.816987,-0.011039297,0.00741849,0.0,1.9440246,-0.011410812,0.06815786,0.013211169,0.00054475106,-0.0004166934,-0.00028855354,-0.45552388,-0.027719097,0.045249235,1.6078935,-0.0020639303,488.11032,5.938019,0.4815007,0.4615336,0.1735455,0.13051897,inf,inf,inf,inf,1,1,1,1,2,0,2,1,3,1,1,1,0,0
86236000,86236000,904000,47.3977508,8.5456073,1.312173,0.01719143,-5.8030086,-0.011039297,0.00741849,0.0,1.4448003,-0.00799392,0.06502467,0.017807577,0.00054475106,-0.0004166934,-0.00028855354,-1.4099302,-0.0049752994,-0.02959743,1.6078058,-0.0020639303,488.11032,5.9240403,0.49317655,0.4658707,0.17472161,0.13231748,inf,inf,inf,inf,1,1,1,1,2,0,2,1,3,1,1,1,0,0
86732000,86732000,904000,47.3977508,8.5456073,1.8629644,0.008455717,-5.803064,-0.011039297,0.00741849,0.0,0.61051327,-0.008643023,0.042770896,-0.005748666,0.00054475106,-0.0004166934,-0.00028855354,-1.915763,-0.015172423,-0.034772787,1.60782,-0.0020639303,488.11032,5.9240956,0.46087167,0.45598552,0.1599035,0.12781022,inf,inf,inf,inf,1,1,1,1,2,0,2,1,3,1,1,1,0,0
87236000,87236000,904000,47.3977508,8.5456073,1.9489335,-0.0011079604,-5.8136697,-0.011039297,0.00741849,0.0,-0.37742314,-0.0034653433,0.03162817,-0.018313114,0.00054475106,-0.0004166934,-0.00028855354,-1.9368813,-0.015790442,0.041375864,1.608289,-0.0020639303,488.11032,5.9347014,0.47126245,0.46026808,0.16497104,0.12943244,inf,inf,inf,inf,1,1,1,1,2,0,2,1,3,1,1,1,0,0
87732000,87732000,904000,47.3977508,8.5456073,1.5507383,-0.002061151,-5.810289,-0.011039297,0.00741849,0.0,-1.2469193,0.0011682308,0.043753307,0.0020822133,0.00054475106,-0.0004166934,-0.00028855354,-1.5058064,0.01244765,0.032104548,1.6090676,-0.0020639303,488.11032,5.9313207,0.4811906,0.45993918,0.17116436,0.13024965,inf,inf,inf,inf,1,1,1,1,2,0,2,1,3,1,1,1,0,0
88236000,88236000,904000,47.3977508,8.5456073,0.7644386,-0.001745124,-5.799049,-0.011039297,0.00741849,0.0,-1.82112,0.0062591447,0.047737367,0.013209602,0.00054475106,-0.0004166934,-0.00028855354,-0.74154973,0.04054821,0.014377757,1.6094099,-0.0020639303,488.11032,5.9200807,0.49249676,0.46430016,0.17689899,0.13184033,inf,inf,inf,inf,1,1,1,1,2,0,2,1,3,1,1,1,0,0
88740000,88740000,904000,47.3977508,8.5456073,-0.2193089,0.0017184631,-5.7834864,-0.011039297,0.00741849,0.0,-1.9330574,0.009009445,0.038913958,0.012301965,0.00054475106,-0.0004166934,-0.00028855354,0.2772444,-0.006363683,-0.053649765,1.6092929,-0.0020639303,488.11032,5.904518,0.4612104,0.45914528,0.16289844,0.12813208,inf,inf,inf,inf,1,1,1,1,2,0,2,1,3,1,1,1,0,0
89236000,89236000,904000,47.3977508,8.5456073,-1.1474098,0.0010868809,-5.7776675,-0.011039297,0.00741849,0.0,-1.562726,0.0048586065,0.02406064,-0.000905859,0.00054475106,-0.0004166934,-0.00028855354,1.2524142,-0.0024774924,0.011587515,1.6091717,-0.0020639303,488.11032,5.8986993,0.4708719,0.45865554,0.16515209,0.12930237,inf,inf,inf,inf,1,1,1,1,2,0,2,1,3,1,1,1,0,0
89732000,89732000,904000,47.3977508,8.5456073,-1.7971774,0.00038035758,-5.7859244,-0.011039297,0.00741849,0.0,-0.8018313,0.004655189,0.021829922,-0.009957634,0.00054475106,-0.0004166934,-0.00028855354,1.8684633,0.004090834,-0.02520345,1.608792,-0.0020639303,488.11032,5.906956,0.48101327,0.46213657,0.16842541,0.1309424,inf,inf,inf,inf,1,1,1,1,2,0,2,1,3,1,1,1,0,0
90236000,90236000,904000,47.3977508,8.5456073,-2.0258315,0.007080542,-5.794266,-0.011039297,0.00741849,0.0,0.16778508,0.008422014,0.01132273,-0.020629933,0.00054475106,-0.0004166934,-0.00028855354,2.053812,0.019323109,0.012989155,1.6080772,-0.0020639303,488.11032,5.915298,0.49252042,0.4623233,0.17480299,0.13202246,inf,inf,inf,inf,1,1,1,1,2,0,2,1,3,1,1,1,0,0
90732000,90732000,904000,47.3977508,8.5456073,-1.777919,0.010548344,-5.7991104,-0.011039297,0.00741849,0.0,1.0912527,0.002802701,0.021848368,-0.006813156,0.00054475106,-0.0004166934,-0.00028855354,1.7623452,-0.0085176425,0.02811942,1.6079189,-0.0020639303,488.11032,5.920142,0.4604015,0.4566395,0.16441704,0.12789373,inf,inf,inf,inf,1,1,1,1,2,0,2,1,3,1,1,1,0,0
91232000,91228000,904000,47.3977508,8.5456073,-1.1123589,0.010656067,-5.798892,-0.011039297,0.00741849,0.0,1.7715462,-0.0024590138,0.040604983,0.01210463,0.00054475106,-0.0004166934,-0.00028855354,1.0578444,-0.028913796,0.03056228,1.6079886,-0.0020639303,488.11032,5.919924,0.47026318,0.45646146,0.17072567,0.12876882,inf,inf,inf,inf,1,1,1,1,2,0,2,1,3,1,1,1,0,0
91736000,91732000,904000,47.3977508,8.5456073,-0.16596709,0.014869348,-5.7918143,-0.011039297,0.00741849,0.0,2.0408072,-0.0033157961,0.04031697,0.012110174,0.00054475106,-0.0004166934,-0.00028855354,0.0367139,-0.045468897,0.010590068,1.6080037,-0.0020639303,488.11032,5.912846,0.48146713,0.46111876,0.17487867,0.1304888,inf,inf,inf,inf,1,1,1,1,2,0,2,1,3,1,1,1,0,0
92232000,92228000,904000,47.3977508,8.5456073,0.78784424,0.01972452,-5.7914476,-0.011039297,0.00741849,0.0,1.8137102,-0.006810676,0.04457479,0.011765861,0.00054475106,-0.0004166934,-0.00028855354,-0.90893173,-0.025179338,0.043278556,1.6076323,-0.0020639303,488.11032,5.9124794,0.49230734,0.46104538,0.17630368,0.13158134,inf,inf,inf,inf,1,1,1,1,2,0,2,1,3,1,1,1,0,0
92736000,92732000,904000,47.3977508,8.5456073,1.5468963,0.022204394,-5.7832713,-0.011039297,0.00741849,0.0,1.1460378,-0.011851005,0.037290942,0.0074341693,0.00054475106,-0.0004166934,-0.00028855354,-1.6733544,-0.03421958,-0.056969,1.6078165,-0.0020639303,488.11032,5.904303,0.4608583,0.4563755,0.1605671,0.12796026,inf,inf,inf,inf,1,1,1,1,2,0,2,1,3,1,1,1,0,0
93232000,93228000,904000,47.3977508,8.5456073,1.9021971,0.02159571,-5.7761793,-0.011039297,0.00741849,0.0,0.22259723,-0.013906287,0.009341365,-0.011518852,0.00054475106,-0.0004166934,-0.00028855354,-1.9937003,-0.009626731,-0.048341226,1.6080251,-0.0020639303,488.11032,5.897211,0.47064787,0.45628533,0.16404495,0.12901044,inf,inf,inf,inf,1,1,1,1,2,0,2,1,3,1,1,1,0,0
93736000,93732000,904000,47.3977508,8.5456073,1.7791798,0.021158677,-5.7753153,-0.011039297,0.00741849,0.0,-0.74269575,-0.015392282,-0.0045296685,-0.01639508,0.00054475106,-0.0004166934,-0.00028855354,-1.7981886,0.00922165,0.052776184,1.6086607,-0.0020639303,488.11032,5.896347,0.48143038,0.46099153,0.16993396,0.1306688,inf,inf,inf,inf,1,1,1,1,2,0,2,1,3,1,1,1,0,0
94232000,94228000,904000,47.3977508,8.5456073,1.2276387,0.022897962,-5.7699566,-0.011039297,0.00741849,0.0,-1.5063233,-0.014309912,0.008738642,0.0041763983,0.00054475106,-0.0004166934,-0.00028855354,-1.261027,0.016826,-0.014307908,1.6091759,-0.0020639303,488.11032,5.8909883,0.49180183,0.46108073,0.17591761,0.13155864,inf,inf,inf,inf,1,1,1,1,2,0,2,1,3,1,1,1,0,0
94736000,94732000,904000,47.3977508,8.5456073,0.34978992,0.027062347,-5.758853,-0.011039297,0.00741849,0.0,-1.9098322,-0.016574996,0.010588203,0.011942743,0.00054475106,-0.0004166934,-0.00028855354,-0.33580446,0.03361242,0.034811903,1.6093521,-0.0020639303,488.11032,5.8798847,0.46067053,0.4565028,0.16323361,0.1278441,inf,inf,inf,inf,1,1,1,1,2,0,2,1,3,1,1,1,0,0
95232000,95228000,904000,47.3977508,8.5456073,-0.59806204,0.032217775,-5.750773,-0.011039297,0.00741849,0.0,-1.8297251,-0.018590383,0.0003916401,0.0046644174,0.00054475106,-0.0004166934,-0.00028855354,0.65095645,-0.018746184,0.0134008,1.6090952,-0.0020639303,488.11032,5.8718047,0.47023058,0.4564301,0.16598599,0.12897275,inf,inf,inf,inf,1,1,1,1,2,0,2,1,3,1,1,1,0,0
95736000,95732000,904000,47.3977508,8.5456073,-1.4121865,0.03941845,-5.7469482,-0.011039297,0.00741849,0.0,-1.2855947,-0.016501408,-0.0032772198,0.0019558633,0.00054475106,-0.0004166934,-0.00028855354,1.4505242,-0.04887172,-0.03121793,1.6087652,-0.0020639303,488.11032,5.86798,0.48117325,0.46102306,0.1687346,0.13083033,inf,inf,inf,inf,1,1,1,1,2,0,2,1,3,1,1,1,0,0
96240000,96236000,904000,47.3977508,8.5456073,-1.8714687,0.04358043,-5.744845,-0.011039297,0.00741849,0.0,-0.42799658,-0.022138754,-0.025728164,-0.016068462,0.00054475106,-0.0004166934,-0.00028855354,1.9016948,0.011162875,-0.047096048,1.6083285,-0.0020639303,488.11032,5.8658767,0.49264967,0.46164265,0.17333183,0.13199991,inf,inf,inf,inf,1,1,1,1,2,0,2,1,3,1,1,1,0,0
96736000,96732000,904000,47.3977508,8.5456073,-1.8574946,0.04346347,-5.7609797,-0.011039297,0.00741849,0.0,0.5138975,-0.025996977,-0.026767625,-0.022302259,0.00054475106,-0.0004166934,-0.00028855354,1.8051772,-0.027838817,0.029329209,1.6081804,-0.0020639303,488.11032,5.8820114,0.46049303,0.45609143,0.16227894,0.12790482,inf,inf,inf,inf,1,1,1,1,2,0,2,1,3,1,1,1,0,0
97232000,97228000,904000,47.3977508,8.5456073,-1.3910502,0.044916216,-5.7679696,-0.011039297,0.00741849,0.0,1.3254055,-0.027473105,8.619482e-05,0.0033138958,0.00054475106,-0.0004166934,-0.00028855354,1.385909,-0.0023373575,0.033167187,1.6082755,-0.0020639303,488.11032,5.8890014,0.47017667,0.45982796,0.16868724,0.12925853,inf,inf,inf,inf,1,1,1,1,2,0,2,1,3,1,1,1,0,0
97736000,97732000,904000,47.3977508,8.5456073,-0.56299186,0.04084088,-5.7586155,-0.011039297,0.00741849,0.0,1.8218256,-0.028614674,0.004550324,0.012349049,0.00054475106,-0.0004166934,-0.00028855354,0.51390374,-0.00016910779,0.018423421,1.6079627,-0.0020639303,488.11032,5.8796473,0.4812882,0.46040162,0.17418015,0.13035238,inf,inf,inf,inf,1,1,1,1,2,0,2,1,3,1,1,1,0,0
98240000,98236000,904000,47.3977508,8.5456073,0.41724953,0.038461007,-5.7472353,-0.011039297,0.00741849,0.0,1.8522618,-0.023751892,-0.0026083882,0.009589965,0.00054475106,-0.0004166934,-0.00028855354,-0.45175377,-0.036478404,-0.008918344,1.6076657,-0.0020639303,488.11032,5.868267,0.49302366,0.46493587,0.17733592,0.13215037,inf,inf,inf,inf,1,1,1,1,2,0,2,1,3,1,1,1,0,0
98736000,98732000,904000,47.3977508,8.5456073,1.2910312,0.034165017,-5.731424,-0.011039297,0.00741849,0.0,1.409667,-0.025279328,-0.012014914,0.0091001075,0.00054475106,-0.0004166934,-0.00028855354,-1.3523762,-0.021985497,-0.029124318,1.6074173,-0.0020639303,488.11032,5.8524556,0.4607081,0.4553759,0.16138281,0.12783737,inf,inf,inf,inf,1,1,1,1,2,0,2,1,3,1,1,1,0,0
99232000,99228000,904000,47.3977508,8.5456073,1.8858649,0.031960636,-5.728503,-0.011039297,0.00741849,0.0,0.6247957,-0.023779415,-0.033111986,-0.010858573,0.00054475106,-0.0004166934,-0.00028855354,-1.8954982,-0.012300471,-0.049049962,1.6078485,-0.0020639303,488.11032,5.849535,0.4704488,0.45907927,0.16402555,0.12948659,inf,inf,inf,inf,1,1,1,1,2,0,2,1,3,1,1,1,0,0
99736000,99732000,904000,47.3977508,8.5456073,2.0350957,0.027974071,-5.745969,-0.011039297,0.00741849,0.0,-0.34487048,-0.02212788,-0.042311147,-0.027539501,0.00054475106,-0.0004166934,-0.00028855354,-2.018056,-0.022074424,0.053556632,1.6084412,-0.0020639303,488.11032,5.8670006,0.48131138,0.4596144,0.16907063,0.1306097,inf,inf,inf,inf,1,1,1,1,2,0,2,1,3,1,1,1,0,0
100232000,100228000,904000,47.3977508,8.5456073,1.722846,0.020783797,-5.755677,-0.011039297,0.00741849,0.0,-1.2232636,-0.024193643,-0.016979482,-0.0038843094,0.00054475106,-0.0004166934,-0.00028855354,-1.7061129,-0.00094226556,0.03067497,1.6085882,-0.0020639303,488.11032,5.876709,0.45313248,0.4543971,0.15988252,0.12682281,inf,inf,inf,inf,1,1,1,1,2,0,2,1,3,1,1,1,0,0
100736000,100732000,904000,47.3977508,8.5456073,0.9953235,0.014964932,-5.7513533,-0.011039297,0.00741849,0.0,-1.8566998,-0.018857747,-0.0038492135,0.011420818,0.00054475106,-0.0004166934,-0.00028855354,-0.8873128,0.026851004,-0.0058524306,1.6090504,-0.0020639303,488.11032,5.872385,0.46560264,0.45896372,0.16723195,0.12875178,inf,inf,inf,inf,1,1,1,1,2,0,2,1,3,1,1,1,0,0
101232000,101228000,904000,47.3977508,8.5456073,0.041111074,0.011401909,-5.7424664,-0.011039297,0.00741849,0.0,-2.0475996,-0.016261343,-0.007274002,0.010327849,0.00054475106,-0.0004166934,-0.00028855354,0.043572333,-0.014344899,-0.013541429,1.6092016,-0.0020639303,488.11032,5.863498,0.47798756,0.4588948,0.17212734,0.13006541,inf,inf,inf,inf,1,1,1,1,2,0,2,1,3,1,1,1,0,0
101736000,101732000,904000,47.3977508,8.5456073,-0.9096583,0.02350429,-5.7402296,-0.011039297,0.00741849,0.0,-1.7362561,-0.012504782,-0.011875821,0.003917202,0.00054475106,-0.0004166934,-0.00028855354,1.056382,-0.03559931,0.03137253,1.6088394,-0.0020639303,488.11032,5.8612614,0.45134535,0.45443565,0.1591479,0.12686065,inf,inf,inf,inf,1,1,1,1,2,0,2,1,3,1,1,1,0,0
102232000,102228000,904000,47.3977508,8.5456073,-1.6016251,0.031885896,-5.7388334,-0.011039297,0.00741849,0.0,-1.0284922,-0.019042274,-0.01743544,-0.001594939,0.00054475106,-0.0004166934,-0.00028855354,1.7352124,-0.030349618,-0.049807128,1.6086444,-0.0020639303,488.11032,5.859865,0.46231198,0.4581449,0.16265719,0.12871124,inf,inf,inf,inf,1,1,1,1,2,0,2,1,3,1,1,1,0,0
102736000,102732000,904000,47.3977508,8.5456073,-1.8873966,0.034964018,-5.7398586,-0.011039297,0.00741849,0.0,-0.07502923,-0.026110092,-0.04299696,-0.022279741,0.00054475106,-0.0004166934,-0.00028855354,1.9989779,-0.013676311,-0.014545395,1.6082928,-0.0020639303,488.11032,5.8608904,0.47449648,0.4589172,0.16867463,0.13009913,inf,inf,inf,inf,1,1,1,1,2,0,2,1,3,1,1,1,0,0
103232000,103228000,904000,47.3977508,8.5456073,-1.6862584,0.037594624,-5.7479753,-0.011039297,0.00741849,0.0,0.8616898,-0.029220106,-0.034329038,-0.0123877395,0.00054475106,-0.0004166934,-0.00028855354,1.7187301,-0.014619945,0.03952905,1.6081702,-0.0020639303,488.11032,5.869007,0.48627236,0.45897228,0.17595424,0.13110554,inf,inf,inf,inf,1,1,1,1,2,0,2,1,3,1,1,1,0,0
103736000,103732000,904000,47.3977508,8.5456073,-1.0464144,0.048830487,-5.7470326,-0.011039297,0.00741849,0.0,1.5829396,-0.033758648,-0.01682786,0.0062882756,0.00054475106,-0.0004166934,-0.00028855354,1.1025678,-0.025280764,0.03292318,1.6080527,-0.0020639303,488.11032,5.8680644,0.45680106,0.4545158,0.16489449,0.12739289,inf,inf,inf,inf,1,1,1,1,2,0,2,1,3,1,1,1,0,0
104232000,104228000,904000,47.3977508,8.5456073,-0.13984042,0.064189106,-5.7438507,-0.011039297,0.00741849,0.0,1.8966662,-0.039305072,-0.005004959,0.015144421,0.00054475106,-0.0004166934,-0.00028855354,0.12999389,-0.07593745,-0.057172026,1.6081023,-0.0020639303,488.11032,5.8648825,0.46729788,0.45831895,0.16904256,0.1290088,inf,inf,inf,inf,1,1,1,1,2,0,2,1,3,1,1,1,0,0
104736000,104732000,904000,47.3977508,8.5456073,0.83530825,0.06928353,-5.7352357,-0.011039297,0.00741849,0.0,1.7312604,-0.04886033,-0.01098787,0.010625541,0.00054475106,-0.0004166934,-0.00028855354,-0.8660709,-0.054290004,-0.024772247,1.6079279,-0.0020639303,488.11032,5.8562675,0.47909272,0.45895153,0.17152771,0.13040248,inf,inf,inf,inf,1,1,1,1,2,0,2,1,3,1,1,1,0,0
105232000,105228000,904000,47.3977508,8.5456073,1.612558,0.06631254,-5.7280135,-0.011039297,0.00741849,0.0,1.1194001,-0.05602958,-0.016918492,0.0065863235,0.00054475106,-0.0004166934,-0.00028855354,-1.7153913,-0.00428014,-0.03595836,1.6077955,-0.0020639303,488.11032,5.8490453,0.49030554,0.4628957,0.1731852,0.13215244,inf,inf,inf,inf,1,1,1,1,2,0,2,1,3,1,1,1,0,0
105736000,105732000,904000,47.3977508,8.5456073,2.0215862,0.06266745,-5.7262216,-0.011039297,0.00741849,0.0,0.2059367,-0.057345383,-0.042950604,-0.015660329,0.00054475106,-0.0004166934,-0.00028855354,-2.016041,-0.011782554,-0.018442048,1.6080159,-0.0020639303,488.11032,5.8472533,0.45954183,0.4543041,0.15983811,0.12790863,inf,inf,inf,inf,1,1,1,1,2,0,2,1,3,1,1,1,0,0
106232000,106228000,904000,47.3977508,8.5456073,1.9625428,0.063600056,-5.7373834,-0.011039297,0.00741849,0.0,-0.7478012,-0.058165707,-0.04384961,-0.018719915,0.00054475106,-0.0004166934,-0.00028855354,-1.896373,-0.01932583,0.086721025,1.6084703,-0.0020639303,488.11032,5.858415,0.46940702,0.45805266,0.16493623,0.12933145,inf,inf,inf,inf,1,1,1,1,2,0,2,1,3,1,1,1,0,0
106736000,106732000,904000,47.3977508,8.5456073,1.4379575,0.06700796,-5.750326,-0.011039297,0.00741849,0.0,-1.555272,-0.05165639,-0.015143259,0.0017066717,0.00054475106,-0.0004166934,-0.00028855354,-1.4269282,-0.033801172,0.029315239,1.6087961,-0.0020639303,488.11032,5.871358,0.4804291,0.4586543,0.17098151,0.13031241,inf,inf,inf,inf,1,1,1,1,2,0,2,1,3,1,1,1,0,0
107240000,107236000,904000,47.3977508,8.5456073,0.5737935,0.06727148,-5.7507634,-0.011039297,0.00741849,0.0,-2.0057907,-0.056459762,0.00044392294,0.01316511,0.00054475106,-0.0004166934,-0.00028855354,-0.500795,-0.049387205,0.05592778,1.6092737,-0.0020639303,488.11032,5.871795,0.49199006,0.4633368,0.17601319,0.13193563,inf,inf,inf,inf,1,1,1,1,2,0,2,1,3,1,1,1,0,0
107736000,107732000,904000,47.3977508,8.5456073,-0.4044536,0.06512617,-5.739852,-0.011039297,0.00741849,0.0,-1.983145,-0.055797078,-0.009344337,0.0073570483,0.00054475106,-0.0004166934,-0.00028855354,0.5230752,-0.035252523,-0.025586223,1.6091332,-0.0020639303,488.11032,5.8608837,0.46005228,0.45773894,0.16159812,0.12803394,inf,inf,inf,inf,1,1,1,1,2,0,2,1,3,1,1,1,0,0
108232000,108228000,904000,47.3977508,8.5456073,-1.264861,0.060260322,-5.748973,-0.011039297,0.00741849,0.0,-1.4823184,-0.05485402,-0.009156237,-0.002685484,0.00054475106,-0.0004166934,-0.00028855354,1.4021935,0.015117504,0.0024717299,1.6088269,-0.0020639303,488.11032,5.8700047,0.4697917,0.45748767,0.16412309,0.12914804,inf,inf,inf,inf,1,1,1,1,2,0,2,1,3,1,1,1,0,0
108736000,108732000,904000,47.3977508,8.5456073,-1.8047647,0.052520677,-5.763648,-0.011039297,0.00741849,0.0,-0.6312764,-0.04694568,-0.009784989,-0.014114311,0.00054475106,-0.0004166934,-0.00028855354,1.9053738,-0.00022313905,0.0031143425,1.6084906,-0.0020639303,488.11032,5.88468,0.48082224,0.46196696,0.16839842,0.13090314,inf,inf,inf,inf,1,1,1,1,2,0,2,1,3,1,1,1,0,0
109232000,109228000,904000,47.3977508,8.5456073,-1.8843169,0.048095945,-5.775133,-0.011039297,0.00741849,0.0,0.33727157,-0.04469539,-0.009961118,-0.015925314,0.00054475106,-0.0004166934,-0.00028855354,1.9433662,-0.017516473,0.063025385,1.6083149,-0.0020639303,488.11032,5.896165,0.49147397,0.46181262,0.17462568,0.13177273,inf,inf,inf,inf,1,1,1,1,2,0,2,1,3,1,1,1,0,0
109736000,109732000,904000,47.3977508,8.5456073,-1.4893082,0.049513098,-5.785607,-0.011039297,0.00741849,0.0,1.2187567,-0.041362964,0.012972643,0.0021934027,0.00054475106,-0.0004166934,-0.00028855354,1.5032021,-0.008020476,0.013069249,1.6078838,-0.0020639303,488.11032,5.9066386,0.46029943,0.45700848,0.16407809,0.12783131,inf,inf,inf,inf,1,1,1,1,2,0,2,1,3,1,1,1,0,0
110232000,110228000,904000,47.3977508,8.5456073,-0.72115284,0.04456376,-5.772879,-0.011039297,0.00741849,0.0,1.790312,-0.039786667,0.025961334,0.023208572,0.00054475106,-0.0004166934,-0.00028855354,0.72666854,-0.026283566,0.04518125,1.6079881,-0.0020639303,488.11032,5.893911,0.47006807,0.45680562,0.16945665,0.12872563,inf,inf,inf,inf,1,1,1,1,2,0,2,1,3,1,1,1,0,0
110736000,110732000,904000,47.3977508,8.5456073,0.2582106,0.045810632,-5.7599754,-0.011039297,0.00741849,0.0,1.90729,-0.035036612,0.018456666,0.018499754,0.00054475106,-0.0004166934,-0.00028855354,-0.28707033,-0.012923569,-0.032456588,1.607821,-0.0020639303,488.11032,5.881007,0.44585827,0.4527422,0.15893222,0.1257168,inf,inf,inf,inf,1,1,1,1,2,0,2,1,3,1,1,1,0,0
111232000,111228000,904000,47.3977508,8.5456073,1.1797209,0.04076362,-5.753243,-0.011039297,0.00741849,0.0,1.536446,-0.033729464,0.009263616,0.009469653,0.00054475106,-0.0004166934,-0.00028855354,-1.2392192,-0.03944643,-0.009305774,1.6076757,-0.0020639303,488.11032,5.8742747,0.4572711,0.456689,0.16208415,0.12780304,inf,inf,inf,inf,1,1,1,1,2,0,2,1,3,1,1,1,0,0
111736000,111732000,904000,47.3977508,8.5456073,1.8313705,0.031745736,-5.757948,-0.011039297,0.00741849,0.0,0.76386976,-0.030511372,-0.0014964486,-0.00725553,0.00054475106,-0.0004166934,-0.00028855354,-1.8743658,-0.018212056,0.009096227,1.6077418,-0.0020639303,488.11032,5.8789797,0.46981087,0.45747322,0.1656624,0.12943035,inf,inf,inf,inf,1,1,1,1,2,0,2,1,3,1,1,1,0,0
112232000,112228000,904000,47.3977508,8.5456073,2.0267193,0.02343677,-5.7746367,-0.011039297,0.00741849,0.0,-0.19257765,-0.025250472,-0.0038898736,-0.018357148,0.00054475106,-0.0004166934,-0.00028855354,-1.9809202,-0.008948293,0.07548089,1.6082071,-0.0020639303,488.11032,5.8956685,0.48179045,0.46155795,0.17063922,0.13120411,inf,inf,inf,inf,1,1,1,1,2,0,2,1,3,1,1,1,0,0
112736000,112732000,904000,47.3977508,8.5456073,1.7396977,0.02144681,-5.7844725,-0.011039297,0.00741849,0.0,-1.1210673,-0.019054841,0.016298767,-0.0014539789,0.00054475106,-0.0004166934,-0.00028855354,-1.7195244,0.013228869,0.09004864,1.6088302,-0.0020639303,488.11032,5.905504,0.45382375,0.45333722,0.16040386,0.12706728,inf,inf,inf,inf,1,1,1,1,2,0,2,1,3,1,1,1,0,0
113240000,113236000,904000,47.3977508,8.5456073,1.0389072,0.019636737,-5.7919984,-0.011039297,0.00741849,0.0,-1.7835429,-0.016080396,0.036745895,0.0107218595,0.00054475106,-0.0004166934,-0.00028855354,-0.9404526,0.0068965307,0.0025890765,1.609165,-0.0020639303,488.11032,5.91303,0.46509996,0.45796272,0.16618934,0.12880161,inf,inf,inf,inf,1,1,1,1,2,0,2,1,3,1,1,1,0,0
113736000,113732000,904000,47.3977508,8.5456073,0.111362524,0.016046733,-5.7944455,-0.011039297,0.00741849,0.0,-2.0169485,-0.011331797,0.04294775,0.009744921,0.00054475106,-0.0004166934,-0.00028855354,-0.032910958,0.029225789,0.029370187,1.6092409,-0.0020639303,488.11032,5.9154773,0.47602016,0.4579231,0.17015408,0.12989883,inf,inf,inf,inf,1,1,1,1,2,0,2,1,3,1,1,1,0,0
114232000,114228000,904000,47.3977508,8.5456073,-0.8375987,0.017806703,-5.797085,-0.011039297,0.00741849,0.0,-1.7805446,-0.008815344,0.04446652,0.00669491,0.00054475106,-0.0004166934,-0.00028855354,0.9295515,-0.0041872407,0.030713154,1.6091577,-0.0020639303,488.11032,5.9181166,0.48735842,0.46179345,0.17285345,0.13161694,inf,inf,inf,inf,1,1,1,1,2,0,2,1,3,1,1,1,0,0
114736000,114732000,904000,47.3977508,8.5456073,-1.5881896,0.019691082,-5.797093,-0.011039297,0.00741849,0.0,-1.1051215,-0.0074495156,0.040534902,0.0021451847,0.00054475106,-0.0004166934,-0.00028855354,1.6753969,-0.0068482035,-0.046410594,1.6085793,-0.0020639303,488.11032,5.9181247,0.4573497,0.4571118,0.15933442,0.12801766,inf,inf,inf,inf,1,1,1,1,2,0,2,1,3,1,1,1,0,0
115232000,115228000,904000,47.3977508,8.5456073,-1.9324721,0.013912824,-5.802941,-0.011039297,0.00741849,0.0,-0.18222572,-0.007962871,0.017751593,-0.020634253,0.00054475106,-0.0004166934,-0.00028855354,1.9980773,0.003860259,-0.05052704,1.6083989,-0.0020639303,488.11032,5.9239726,0.4674495,0.45703802,0.16421066,0.12905988,inf,inf,inf,inf,1,1,1,1,2,0,2,1,3,1,1,1,0,0
115736000,115732000,904000,47.3977508,8.5456073,-1.7969656,0.009257596,-5.813661,-0.011039297,0.00741849,0.0,0.7803165,-0.0061784824,0.029570138,-0.009261064,0.00054475106,-0.0004166934,-0.00028855354,1.8554788,0.011017385,0.0723591,1.6080382,-0.0020639303,488.11032,5.934693,0.47879454,0.46161696,0.17113237,0.13065319,inf,inf,inf,inf,1,1,1,1,2,0,2,1,3,1,1,1,0,0
116232000,116228000,904000,47.3977508,8.5456073,-1.2195913,0.010630419,-5.813975,-0.011039297,0.00741849,0.0,1.5379436,-0.0029787826,0.044698033,0.006535405,0.00054475106,-0.0004166934,-0.00028855354,1.2075874,-0.030576192,0.039269213,1.607676,-0.0020639303,488.11032,5.9350066,0.48980674,0.46139985,0.1776412,0.13144182,inf,inf,inf,inf,1,1,1,1,2,0,2,1,3,1,1,1,0,0
116736000,116732000,904000,47.3977508,8.5456073,-0.32420573,0.013562864,-5.8040695,-0.011039297,0.00741849,0.0,1.9193292,-0.0023059726,0.056424927,0.021203026,0.00054475106,-0.0004166934,-0.00028855354,0.27470306,0.008773523,-0.006752088,1.6077207,-0.0020639303,488.11032,5.9251013,0.45894703,0.45658317,0.16428505,0.12765506,inf,inf,inf,inf,1,1,1,1,2,0,2,1,3,1,1,1,0,0
117232000,117228000,904000,47.3977508,8.5456073,0.6610096,0.013654892,-5.7896614,-0.011039297,0.00741849,0.0,1.815443,-0.0017964075,0.046304967,0.016829554,0.00054475106,-0.0004166934,-0.00028855354,-0.75317085,-0.0060161543,-0.022163613,1.6074456,-0.0020639303,488.11032,5.910693,0.46892384,0.45648405,0.16675235,0.12881531,inf,inf,inf,inf,1,1,1,1,2,0,2,1,3,1,1,1,0,0
117736000,117732000,904000,47.3977508,8.5456073,1.495576,0.010172807,-5.775247,-0.011039297,0.00741849,0.0,1.2396619,0.0005723078,0.034009047,0.011181537,0.00054475106,-0.0004166934,-0.00028855354,-1.5629464,-0.055995315,0.00392273,1.6075435,-0.0020639303,488.11032,5.896279,0.48013967,0.46111527,0.1688496,0.13073364,inf,inf,inf,inf,1,1,1,1,2,0,2,1,3,1,1,1,0,0
118232000,118228000,904000,47.3977508,8.5456073,1.9555242,0.003840826,-5.7685723,-0.011039297,0.00741849,0.0,0.36220148,0.0015828772,0.0043015005,-0.012636282,0.00054475106,-0.0004166934,-0.00028855354,-2.0295973,-0.0060480377,-0.059198584,1.6076455,-0.0020639303,488.11032,5.889604,0.4908988,0.46099558,0.17202657,0.13177665,inf,inf,inf,inf,1,1,1,1,2,0,2,1,3,1,1,1,0,0
118736000,118732000,904000,47.3977508,8.5456073,1.9389524,0.0035557167,-5.7738233,-0.011039297,0.00741849,0.0,-0.6193013,0.006156016,-0.004499179,-0.017697344,0.00054475106,-0.0004166934,-0.00028855354,-1.8809043,-0.050680984,-0.0013262032,1.6082467,-0.0020639303,488.11032,5.894855,0.45990235,0.45615146,0.16039534,0.12787725,inf,inf,inf,inf,1,1,1,1,2,0,2,1,3,1,1,1,0,0
119232000,119228000,904000,47.3977508,8.5456073,1.4547784,-0.0013230947,-5.7755866,-0.011039297,0.00741849,0.0,-1.4391961,0.0043229065,0.011010012,5.0219212e-05,0.00054475106,-0.0004166934,-0.00028855354,-1.3480622,0.014305405,0.039426606,1.609069,-0.0020639303,488.11032,5.8966184,0.46952793,0.45986232,0.1658677,0.12923746,inf,inf,inf,inf,1,1,1,1,2,0,2,1,3,1,1,1,0,0
119736000,119732000,904000,47.3977508,8.5456073,0.6205331,0.0011295652,-5.7657185,-0.011039297,0.00741849,0.0,-1.9285513,0.004428157,0.01628699,0.011372539,0.00054475106,-0.0004166934,-0.00028855354,-0.56393874,0.0042034807,0.019266268,1.6094291,-0.0020639303,488.11032,5.88675,0.48032847,0.46030942,0.17087224,0.13027757,inf,inf,inf,inf,1,1,1,1,2,0,2,1,3,1,1,1,0,0
120232000,120228000,904000,47.3977508,8.5456073,-0.352957,0.008212936,-5.765467,-0.011039297,0.00741849,0.0,-1.9594548,0.0025977192,0.012300245,0.003090078,0.00054475106,-0.0004166934,-0.00028855354,0.44480872,-0.0019870494,0.041854564,1.6093916,-0.0020639303,488.11032,5.886499,0.49085042,0.46405303,0.17413923,0.13184348,inf,inf,inf,inf,1,1,1,1,2,0,2,1,3,1,1,1,0,0
120736000,120736000,904000,47.3977508,8.5456073,-1.2520455,0.009587973,-5.763752,-0.011039297,0.00741849,0.0,-1.4916666,-0.0015762592,0.013784975,0.004337412,0.00054475106,-0.0004166934,-0.00028855354,1.3607264,0.021707688,-0.0019455327,1.6089283,-0.0020639303,488.11032,5.8847837,0.45973906,0.4552211,0.16002686,0.1276629,inf,inf,inf,inf,1,1,1,1,2,0,2,1,3,1,1,1,0,0
121232000,121232000,904000,47.3977508,8.5456073,-1.8259978,0.013106723,-5.755274,-0.011039297,0.00741849,0.0,-0.68711317,-0.0013048047,-0.006860283,-0.007475214,0.00054475106,-0.0004166934,-0.00028855354,1.8840357,-0.0045231716,-0.06714276,1.6085787,-0.0020639303,488.11032,5.8763056,0.4694967,0.4589355,0.16385587,0.12925754,inf,inf,inf,inf,1,1,1,1,2,0,2,1,3,1,1,1,0,0
121736000,121736000,904000,47.3977508,8.5456073,-1.9554281,0.013963532,-5.7593884,-0.011039297,0.00741849,0.0,0.2900359,-0.0034798041,-0.033496838,-0.028750287,0.00054475106,-0.0004166934,-0.00028855354,1.9369713,-0.027712869,-0.0050934027,1.6081961,-0.0020639303,488.11032,5.88042,0.48061067,0.45945677,0.17020485,0.13037074,inf,inf,inf,inf,1,1,1,1,2,0,2,1,3,1,1,1,0,0
122232000,122232000,904000,47.3977508,8.5456073,-1.6082987,0.014504864,-5.767237,-0.011039297,0.00741849,0.0,1.1744196,-0.004588812,-0.013217517,-0.008081882,0.00054475106,-0.0004166934,-0.00028855354,1.6170154,0.0067985235,0.030704772,1.6079383,-0.0020639303,488.11032,5.888269,0.4912535,0.46317646,0.17691675,0.13169493,inf,inf,inf,inf,1,1,1,1,2,0,2,1,3,1,1,1,0,0
122736000,122736000,904000,47.3977508,8.5456073,-0.86382055,0.010339317,-5.7645745,-0.011039297,0.00741849,0.0,1.7830883,-0.006239553,0.0044055334,0.010240422,0.00054475106,-0.0004166934,-0.00028855354,0.7953222,-0.015752941,-0.0015851109,1.6079212,-0.0020639303,488.11032,5.8856063,0.45995265,0.4543881,0.16466708,0.12727664,inf,inf,inf,inf,1,1,1,1,2,0,2,1,3,1,1,1,0,0
123232000,123232000,904000,47.3977508,8.5456073,0.078821145,0.0050047804,-5.753374,-0.011039297,0.00741849,0.0,1.9485427,-0.00314197,0.008483362,0.018283574,0.00054475106,-0.0004166934,-0.00028855354,-0.1896225,0.02702091,-0.06580352,1.6075585,-0.0020639303,488.11032,5.874406,0.46969822,0.45807773,0.16806032,0.12884821,inf,inf,inf,inf,1,1,1,1,2,0,2,1,3,1,1,1,0,0
123736000,123736000,904000,47.3977508,8.5456073,1.0106336,0.0042110495,-5.7355285,-0.011039297,0.00741849,0.0,1.6270895,0.00063151005,-0.0030748267,0.016063333,0.00054475106,-0.0004166934,-0.00028855354,-1.1553273,0.021175697,-0.052283514,1.6074898,-0.0020639303,488.11032,5.85656,0.48077664,0.4586248,0.17033516,0.13018535,inf,inf,inf,inf,1,1,1,1,2,0,2,1,3,1,1,1,0,0
124240000,124240000,904000,47.3977508,8.5456073,1.6878577,0.01066795,-5.728999,-0.011039297,0.00741849,0.0,0.8990186,0.008372446,-0.020949183,-0.00059929944,0.00054475106,-0.0004166934,-0.00028855354,-1.7636294,0.007686787,-0.048763115,1.6077139,-0.0020639303,488.11032,5.850031,0.4923781,0.4631786,0.17289722,0.13204248,inf,inf,inf,inf,1,1,1,1,2,0,2,1,3,1,1,1,0,0
124736000,124736000,904000,47.3977508,8.5456073,1.9461468,0.010679606,-5.728837,-0.011039297,0.00741849,0.0,-0.038737122,0.006336315,-0.04563235,-0.021056123,0.00054475106,-0.0004166934,-0.00028855354,-2.0096433,0.027296016,-0.05863886,1.6080993,-0.0020639303,488.11032,5.849869,0.46017596,0.45397797,0.1597807,0.12760781,inf,inf,inf,inf,1,1,1,1,2,0,2,1,3,1,1,1,0,0
125232000,125232000,904000,47.3977508,8.5456073,1.7409487,0.011990597,-5.728452,-0.011039297,0.00741849,0.0,-0.9598565,0.007338172,-0.039548095,-0.006616878,0.00054475106,-0.0004166934,-0.00028855354,-1.737264,0.015395183,-0.008633359,1.6085792,-0.0020639303,488.11032,5.849484,0.4697568,0.4581112,0.16502975,0.1291299,inf,inf,inf,inf,1,1,1,1,2,0,2,1,3,1,1,1,0,0
125736000,125736000,904000,47.3977508,8.5456073,1.0964383,0.014452966,-5.7249594,-0.011039297,0.00741849,0.0,-1.6744328,0.006408722,-0.03472499,0.0012922642,0.00054475106,-0.0004166934,-0.00028855354,-1.052559,-0.010423304,0.014755874,1.6092573,-0.0020639303,488.11032,5.845991,0.48046443,0.4589445,0.17070414,0.1302152,inf,inf,inf,inf,1,1,1,1,2,0,2,1,3,1,1,1,0,0
126232000,126232000,904000,47.3977508,8.5456073,0.18707187,0.011241448,-5.719112,-0.011039297,0.00741849,0.0,-1.9747301,0.00034070146,-0.029999442,0.007606969,0.00054475106,-0.0004166934,-0.00028855354,-0.17325498,-0.0008434144,-0.055524517,1.6092545,-0.0020639303,488.11032,5.8401437,0.49087492,0.46292734,0.17476872,0.13174196,inf,inf,inf,inf,1,1,1,1,2,0,2,1,3,1,1,1,0,0
126736000,126736000,904000,47.3977508,8.5456073,-0.7815064,0.0017638652,-5.7181754,-0.011039297,0.00741849,0.0,-1.7888803,0.0019266469,-0.036992628,-0.0013254555,0.00054475106,-0.0004166934,-0.00028855354,0.86608964,0.013049269,-0.011408701,1.6092561,-0.0020639303,488.11032,5.839207,0.4599247,0.45421886,0.1607787,0.12757531,inf,inf,inf,inf,1,1,1,1,2,0,2,1,3,1,1,1,0,0
127240000,127240000,904000,47.3977508,8.5456073,-1.5522001,-0.011055508,-5.7211633,-0.011039297,0.00741849,0.0,-1.1552818,0.005086976,-0.037179716,-0.0040601618,0.00054475106,-0.0004166934,-0.00028855354,1.6175771,0.039617937,-0.047318634,1.6087767,-0.0020639303,488.11032,5.842195,0.47031868,0.4586473,0.16406903,0.12939198,inf,inf,inf,inf,1,1,1,1,2,0,2,1,3,1,1,1,0,0
127736000,127736000,904000,47.3977508,8.5456073,-1.9280629,-0.016006192,-5.727385,-0.011039297,0.00741849,0.0,-0.25644612,0.013121509,-0.055095162,-0.022190444,0.00054475106,-0.0004166934,-0.00028855354,1.9823349,0.02840007,-0.030342488,1.6084093,-0.0020639303,488.11032,5.848417,0.48037988,0.4585293,0.16876909,0.13037154,inf,inf,inf,inf,1,1,1,1,2,0,2,1,3,1,1,1,0,0
128240000,128240000,904000,47.3977508,8.5456073,-1.8231639,-0.011387732,-5.7403703,-0.011039297,0.00741849,0.0,0.7043071,0.016439712,-0.04555382,-0.015356001,0.00054475106,-0.0004166934,-0.00028855354,1.8137774,0.0020377336,0.06555765,1.6080449,-0.0020639303,488.11032,5.861402,0.4918453,0.46312448,0.17553666,0.13192953,inf,inf,inf,inf,1,1,1,1,2,0,2,1,3,1,1,1,0,0
128736000,128736000,904000,47.3977508,8.5456073,-1.2789161,-0.0052988403,-5.7490273,-0.011039297,0.00741849,0.0,1.4712799,0.014853945,-0.022707919,0.0018353701,0.00054475106,-0.0004166934,-0.00028855354,1.238801,-0.0198717,0.026839783,1.6076466,-0.0020639303,488.11032,5.870059,0.45974582,0.45745236,0.16387206,0.12777814,inf,inf,inf,inf,1,1,1,1,2,0,2,1,3,1,1,1,0,0
129240000,129240000,904000,47.3977508,8.5456073,-0.40684706,0.00042203162,-5.740747,-0.011039297,0.00741849,0.0,1.8854835,0.013140617,-0.0080781765,0.01909993,0.00054475106,-0.0004166934,-0.00028855354,0.36906508,-0.01176563,-0.010765157,1.6077222,-0.0020639303,488.11032,5.8617787,0.47040343,0.45799088,0.16878903,0.12894008,inf,inf,inf,inf,1,1,1,1,2,0,2,1,3,1,1,1,0,0
129736000,129736000,904000,47.3977508,8.5456073,0.564038,0.010164875,-5.7246823,-0.011039297,0.00741849,0.0,1.8316102,0.0049661957,-0.017692007,0.016519265,0.00054475106,-0.0004166934,-0.00028855354,-0.6152048,-0.0022810416,-0.054072585,1.6073817,-0.0020639303,488.11032,5.845714,0.48066372,0.45794845,0.171474,0.13008563,inf,inf,inf,inf,1,1,1,1,2,0,2,1,3,1,1,1,0,0
130240000,130240000,904000,47.3977508,8.5456073,1.4209526,0.02215763,-5.7204666,-0.011039297,0.00741849,0.0,1.3046267,-0.00071587635,-0.025040777,0.00701817,0.00054475106,-0.0004166934,-0.00028855354,-1.5169959,-0.02786533,-0.028376466,1.6077489,-0.0020639303,488.11032,5.8414984,0.49221414,0.46268547,0.17366154,0.132022,inf,inf,inf,inf,1,1,1,1,2,0,2,1,3,1,1,1,0,0
130736000,130736000,904000,47.3977508,8.5456073,1.9173824,0.023936545,-5.720146,-0.011039297,0.00741849,0.0,0.45299542,-0.012465437,-0.041117713,-0.00934645,0.00054475106,-0.0004166934,-0.00028855354,-1.9738028,-0.02433793,0.0029113141,1.6077262,-0.0020639303,488.11032,5.841178,0.4600468,0.45720717,0.15957057,0.12813063,inf,inf,inf,inf,1,1,1,1,2,0,2,1,3,1,1,1,0,0
131240000,131240000,904000,47.3977508,8.5456073,1.9817983,0.028934654,-5.7304306,-0.011039297,0.00741849,0.0,-0.5117194,-0.015099306,-0.048771225,-0.018613258,0.00054475106,-0.0004166934,-0.00028855354,-1.9142945,-0.0039023722,-0.017249024,1.6081294,-0.0020639303,488.11032,5.8514624,0.4704002,0.45775217,0.1645378,0.1292339,inf,inf,inf,inf,1,1,1,1,2,0,2,1,3,1,1,1,0,0
131736000,131736000,904000,47.3977508,8.5456073,1.5707794,0.035200763,-5.732761,-0.011039297,0.00741849,0.0,-1.3632195,-0.020454068,-0.031501405,0.0008346682,0.00054475106,-0.0004166934,-0.00028855354,-1.4770552,-0.040178854,0.017073935,1.6089567,-0.0020639303,488.11032,5.8537927,0.48042795,0.46145827,0.17012477,0.13057178,inf,inf,inf,inf,1,1,1,1,2,0,2,1,3,1,1,1,0,0
132240000,132240000,904000,47.3977508,8.5456073,0.7704353,0.035980627,-5.728192,-0.011039297,0.00741849,0.0,-1.9141383,-0.024869647,-0.021437235,0.0118359225,0.00054475106,-0.0004166934,-0.00028855354,-0.6815766,-0.0431677,-0.0013932585,1.6091403,-0.0020639303,488.11032,5.8492236,0.49170655,0.46194682,0.17540966,0.13157955,inf,inf,inf,inf,1,1,1,1,2,0,2,1,3,1,1,1,0,0
132736000,132736000,904000,47.3977508,8.5456073,-0.20379911,0.040980462,-5.7198224,-0.011039297,0.00741849,0.0,-2.0045886,-0.024778577,-0.02854902,0.0068675773,0.00054475106,-0.0004166934,-0.00028855354,0.35608402,-0.01957023,-0.0047199423,1.6092396,-0.0020639303,488.11032,5.840854,0.45979527,0.45643434,0.16149797,0.12770577,inf,inf,inf,inf,1,1,1,1,2,0,2,1,3,1,1,1,0,0
133240000,133240000,904000,47.3977508,8.5456073,-1.1287808,0.05014118,-5.7195773,-0.011039297,0.00741849,0.0,-1.594794,-0.032012556,-0.036085308,-0.0017261875,0.00054475106,-0.0004166934,-0.00028855354,1.2594211,-0.03455732,-0.035405155,1.6089507,-0.0020639303,488.11032,5.840609,0.4701784,0.45688307,0.16449027,0.12901424,inf,inf,inf,inf,1,1,1,1,2,0,2,1,3,1,1,1,0,0
133736000,133736000,904000,47.3977508,8.5456073,-1.7553601,0.060730185,-5.735014,-0.011039297,0.00741849,0.0,-0.8150754,-0.0343461,-0.04112507,-0.018081164,0.00054475106,-0.0004166934,-0.00028855354,1.8386847,-0.058613554,0.033196058,1.6083273,-0.0020639303,488.11032,5.8560457,0.4802483,0.46051756,0.16809602,0.13059378,inf,inf,inf,inf,1,1,1,1,2,0,2,1,3,1,1,1,0,0
134240000,134240000,904000,47.3977508,8.5456073,-1.9500743,0.069094606,-5.7563615,-0.011039297,0.00741849,0.0,0.15964401,-0.042748593,-0.034669552,-0.021919334,0.00054475106,-0.0004166934,-0.00028855354,2.0002787,-0.053063206,0.046416182,1.6079096,-0.0020639303,488.11032,5.8773932,0.4916855,0.4650403,0.17406608,0.13223286,inf,inf,inf,inf,1,1,1,1,2,0,2,1,3,1,1,1,0,0
134736000,134736000,904000,47.3977508,8.5456073,-1.6554093,0.063718505,-5.765739,-0.011039297,0.00741849,0.0,1.0705404,-0.050931904,-0.0132883405,-0.0036325003,0.00054475106,-0.0004166934,-0.00028855354,1.6568683,-0.015863115,0.0697039,1.6080602,-0.0020639303,488.11032,5.8867707,0.4596557,0.45550203,0.16300948,0.12757379,inf,inf,inf,inf,1,1,1,1,2,0,2,1,3,1,1,1,0,0
135240000,135240000,904000,47.3977508,8.5456073,-0.9507841,0.06698639,-5.776685,-0.011039297,0.00741849,0.0,1.7185527,-0.048978638,0.014763585,0.012446521,0.00054475106,-0.0004166934,-0.00028855354,0.8952387,0.011638956,0.07909722,1.6081579,-0.0020639303,488.11032,5.897717,0.47015864,0.45997316,0.16886993,0.12917641,inf,inf,inf,inf,1,1,1,1,2,0,2,1,3,1,1,1,0,0
135736000,135736000,904000,47.3977508,8.5456073,-0.015099532,0.06388849,-5.774952,-0.011039297,0.00741849,0.0,1.943142,-0.050927028,0.026713721,0.018863956,0.00054475106,-0.0004166934,-0.00028855354,-0.035907548,-0.04506399,0.032251697,1.6078552,-0.0020639303,488.11032,5.8959837,0.48042026,0.4598275,0.17256473,0.13020523,inf,inf,inf,inf,1,1,1,1,2,0,2,1,3,1,1,1,0,0
136240000,136240000,904000,47.3977508,8.5456073,0.9331343,0.052404866,-5.7693963,-0.011039297,0.00741849,0.0,1.6725761,-0.051034868,0.026359137,0.016771913,0.00054475106,-0.0004166934,-0.00028855354,-1.0602958,-0.0032015957,0.00502821,1.6076543,-0.0020639303,488.11032,5.890428,0.49203458,0.460414,0.17493805,0.1315279,inf,inf,inf,inf,1,1,1,1,2,0,2,1,3,1,1,1,0,0
136736000,136736000,904000,47.3977508,8.5456073,1.6433755,0.047891628,-5.7611284,-0.011039297,0.00741849,0.0,0.9889078,-0.045911532,0.016293233,0.008528435,0.00054475106,-0.0004166934,-0.00028855354,-1.759504,-0.020562451,-0.034961846,1.6077948,-0.0020639303,488.11032,5.88216,0.46001562,0.45514095,0.15997632,0.12779734,inf,inf,inf,inf,1,1,1,1,2,0,2,1,3,1,1,1,0,0
137232000,137232000,904000,47.3977508,8.5456073,1.9591916,0.05435555,-5.766638,-0.011039297,0.00741849,0.0,0.072847165,-0.039176937,-0.0052387738,-0.01523722,0.00054475106,-0.0004166934,-0.00028855354,-1.9610337,-0.012813266,0.002053566,1.6081175,-0.0020639303,488.11032,5.8876696,0.46974432,0.4590588,0.16367136,0.12940119,inf,inf,inf,inf,1,1,1,1,2,0,2,1,3,1,1,1,0,0
137736000,137736000,904000,47.3977508,8.5456073,1.8020291,0.062346254,-5.7718716,-0.011039297,0.00741849,0.0,-0.8772128,-0.040685758,0.0035257526,-0.004605176,0.00054475106,-0.0004166934,-0.00028855354,-1.8080364,-0.022727966,0.028029082,1.6084871,-0.0020639303,488.11032,5.8929033,0.48050034,0.45979032,0.16910078,0.13047267,inf,inf,inf,inf,1,1,1,1,2,0,2,1,3,1,1,1,0,0
138240000,138240000,904000,47.3977508,8.5456073,1.193442,0.06444396,-5.775368,-0.011039297,0.00741849,0.0,-1.6244212,-0.04787507,0.019038051,0.0073830104,0.00054475106,-0.0004166934,-0.00028855354,-1.1553136,-0.052076515,0.035249624,1.6089195,-0.0020639303,488.11032,5.8964,0.4917432,0.46062413,0.17486905,0.13150948,inf,inf,inf,inf,1,1,1,1,2,0,2,1,3,1,1,1,0,0
138736000,138736000,904000,47.3977508,8.5456073,0.29699287,0.065447696,-5.7764635,-0.011039297,0.00741849,0.0,-1.9681493,-0.05282063,0.029234104,0.011859047,0.00054475106,-0.0004166934,-0.00028855354,-0.2442458,-0.028311288,0.03131851,1.6092108,-0.0020639303,488.11032,5.8974953,0.45983842,0.45535225,0.16173774,0.12759495,inf,inf,inf,inf,1,1,1,1,2,0,2,1,3,1,1,1,0,0
139240000,139240000,904000,47.3977508,8.5456073,-0.67497045,0.0690045,-5.785662,-0.011039297,0.00741849,0.0,-1.8286285,-0.055859987,0.031057827,0.0022728448,0.00054475106,-0.0004166934,-0.00028855354,0.7532452,-0.030738926,0.026579013,1.6089157,-0.0020639303,488.11032,5.906694,0.4701766,0.45616916,0.1649877,0.12894851,inf,inf,inf,inf,1,1,1,1,2,0,2,1,3,1,1,1,0,0
139736000,139736000,904000,47.3977508,8.5456073,-1.469607,0.06738637,-5.796305,-0.011039297,0.00741849,0.0,-1.2462343,-0.056063373,0.03141894,-0.006413427,0.00054475106,-0.0004166934,-0.00028855354,1.5735877,-0.026402965,0.025399027,1.6086786,-0.0020639303,488.11032,5.917337,0.48022738,0.46009806,0.16796844,0.1306402,inf,inf,inf,inf,1,1,1,1,2,0,2,1,3,1,1,1,0,0
140240000,140240000,904000,47.3977508,8.5456073,-1.9170549,0.060914025,-5.8185787,-0.011039297,0.00741849,0.0,-0.35808367,-0.05725864,0.03327693,-0.01883936,0.00054475106,-0.0004166934,-0.00028855354,1.9736643,0.025884043,0.050165687,1.6082972,-0.0020639303,488.11032,5.9396105,0.49164182,0.4647551,0.1728529,0.13238327,inf,inf,inf,inf,1,1,1,1,2,0,2,1,3,1,1,1,0,0
140736000,140736000,904000,47.3977508,8.5456073,-1.8993096,0.057543375,-5.836427,-0.011039297,0.00741849,0.0,0.6007392,-0.05577647,0.051956374,-0.007397281,0.00054475106,-0.0004166934,-0.00028855354,1.9290254,-0.0039855363,0.06904918,1.6080246,-0.0020639303,488.11032,5.957459,0.45973155,0.45526809,0.16177642,0.12775463,inf,inf,inf,inf,1,1,1,1,2,0,2,1,3,1,1,1,0,0
141240000,141240000,904000,47.3977508,8.5456073,-1.426998,0.056253076,-5.8480697,-0.011039297,0.00741849,0.0,1.4295843,-0.053679816,0.072058365,0.0038944453,0.00054475106,-0.0004166934,-0.00028855354,1.3858339,-0.020954916,0.07063988,1.6082091,-0.0020639303,488.11032,5.9691014,0.47019526,0.4597009,0.1683162,0.12927298,inf,inf,inf,inf,1,1,1,1,2,0,2,1,3,1,1,1,0,0
141736000,141736000,904000,47.3977508,8.5456073,-0.6090134,0.055861417,-5.851678,-0.011039297,0.00741849,0.0,1.909655,-0.050616153,0.09248191,0.016735882,0.00054475106,-0.0004166934,-0.00028855354,0.5727436,-0.011963114,0.10682362,1.6080632,-0.0020639303,488.11032,5.9727097,0.48042396,0.45954016,0.17318803,0.13014923,inf,inf,inf,inf,1,1,1,1,2,0,2,1,3,1,1,1,0,0
142240000,142240000,904000,47.3977508,8.5456073,0.36767554,0.051468365,-5.8355827,-0.011039297,0.00741849,0.0,1.924352,-0.05160763,0.09128215,0.02286014,0.00054475106,-0.0004166934,-0.00028855354,-0.45952356,-0.00096081925,-0.016970558,1.6079899,-0.0020639303,488.11032,5.9566145,0.4920847,0.4640381,0.17642365,0.13188997,inf,inf,inf,inf,1,1,1,1,2,0,2,1,3,1,1,1,0,0
142736000,142736000,904000,47.3977508,8.5456073,1.2321965,0.053083375,-5.8251357,-0.011039297,0.00741849,0.0,1.4611878,-0.047390264,0.08427683,0.01873691,0.00054475106,-0.0004166934,-0.00028855354,-1.3307828,-0.026077308,-0.007846392,1.6075625,-0.0020639303,488.11032,5.9461675,0.4600008,0.45827797,0.16089559,0.12803634,inf,inf,inf,inf,1,1,1,1,2,0,2,1,3,1,1,1,0,0
143240000,143240000,904000,47.3977508,8.5456073,1.7987878,0.05392984,-5.8195925,-0.011039297,0.00741849,0.0,0.6401305,-0.046351727,0.06522129,0.0016126039,0.00054475106,-0.0004166934,-0.00028855354,-1.9271712,-0.025468135,-0.019794328,1.607841,-0.0020639303,488.11032,5.940624,0.4706213,0.45884907,0.16397035,0.12933339,inf,inf,inf,inf,1,1,1,1,2,0,2,1,3,1,1,1,0,0
143736000,143736000,904000,47.3977508,8.5456073,1.9046996,0.05361628,-5.8177876,-0.011039297,0.00741849,0.0,-0.32478553,-0.044436518,0.03918192,-0.017326355,0.00054475106,-0.0004166934,-0.00028855354,-1.950108,-0.029073125,-0.02847798,1.6081556,-0.0020639303,488.11032,5.9388194,0.48060316,0.46263868,0.16834609,0.13081065,inf,inf,inf,inf,1,1,1,1,2,0,2,1,3,1,1,1,0,0
144240000,144240000,904000,47.3977508,8.5456073,1.5445746,0.05473583,-5.8151054,-0.011039297,0.00741849,0.0,-1.2086068,-0.04465395,0.047256336,-0.0008785209,0.00054475106,-0.0004166934,-0.00028855354,-1.5882777,-0.06491935,0.04299171,1.6088774,-0.0020639303,488.11032,5.936137,0.49182937,0.4631941,0.17413776,0.13181865,inf,inf,inf,inf,1,1,1,1,2,0,2,1,3,1,1,1,0,0
144736000,144736000,904000,47.3977508,8.5456073,0.8138133,0.050365325,-5.807538,-0.011039297,0.00741849,0.0,-1.7944143,-0.048475116,0.054549374,0.011850691,0.00054475106,-0.0004166934,-0.00028855354,-0.81262416,0.026311738,-0.025073996,1.6091648,-0.0020639303,488.11032,5.92857,0.45981935,0.45381397,0.16176723,0.12727083,inf,inf,inf,inf,1,1,1,1,2,0,2,1,3,1,1,1,0,0
145240000,145240000,904000,47.3977508,8.5456073,-0.13767703,0.051876027,-5.7876987,-0.011039297,0.00741849,0.0,-1.9496605,-0.047532976,0.039149642,0.009341946,0.00054475106,-0.0004166934,-0.00028855354,0.15059502,-0.042655285,-0.03411341,1.609054,-0.0020639303,488.11032,5.9087305,0.47011352,0.45826483,0.16575135,0.1290413,inf,inf,inf,inf,1,1,1,1,2,0,2,1,3,1,1,1,0,0
145736000,145736000,904000,47.3977508,8.5456073,-1.0500921,0.05133481,-5.7774506,-0.011039297,0.00741849,0.0,-1.6124154,-0.043085914,0.029637858,0.00648892,0.00054475106,-0.0004166934,-0.00028855354,1.1205026,-0.009623515,0.061007213,1.6088122,-0.0020639303,488.11032,5.8984823,0.48027915,0.45825797,0.16867292,0.13023488,inf,inf,inf,inf,1,1,1,1,2,0,2,1,3,1,1,1,0,0
146240000,146240000,904000,47.3977508,8.5456073,-1.7059425,0.046870068,-5.7672443,-0.011039297,0.00741849,0.0,-0.869899,-0.03889437,0.004227268,-0.010288728,0.00054475106,-0.0004166934,-0.00028855354,1.8065813,0.0101308245,-0.06030779,1.6084433,-0.0020639303,488.11032,5.888276,0.49183485,0.46296945,0.17269282,0.13210103,inf,inf,inf,inf,1,1,1,1,2,0,2,1,3,1,1,1,0,0
146736000,146736000,904000,47.3977508,8.5456073,-1.9438128,0.03811195,-5.7820907,-0.011039297,0.00741849,0.0,0.060711987,-0.037781235,-0.010875042,-0.029820083,0.00054475106,-0.0004166934,-0.00028855354,1.9399141,-0.03547872,0.045926306,1.608472,-0.0020639303,488.11032,5.9031224,0.45975146,0.45747834,0.16083078,0.12809575,inf,inf,inf,inf,1,1,1,1,2,0,2,1,3,1,1,1,0,0
147232000,147232000,904000,47.3977508,8.5456073,-1.7195623,0.027927624,-5.7913904,-0.011039297,0.00741849,0.0,0.9744319,-0.032014955,0.0037612875,-0.014067139,0.00054475106,-0.0004166934,-0.00028855354,1.6680613,0.0068004443,0.05419645,1.608232,-0.0020639303,488.11032,5.912422,0.4695001,0.45736986,0.16701631,0.1289756,inf,inf,inf,inf,1,1,1,1,2,0,2,1,3,1,1,1,0,0
147736000,147736000,904000,47.3977508,8.5456073,-1.061375,0.018298231,-5.7869062,-0.011039297,0.00741849,0.0,1.6659285,-0.025490262,0.021012507,0.008385086,0.00054475106,-0.0004166934,-0.00028855354,1.037149,-0.033806395,0.020707956,1.6077912,-0.0020639303,488.11032,5.907938,0.48064953,0.46192223,0.17320788,0.13054603,inf,inf,inf,inf,1,1,1,1,2,0,2,1,3,1,1,1,0,0
148232000,148232000,904000,47.3977508,8.5456073,-0.16018987,0.0063141445,-5.7678366,-0.011039297,0.00741849,0.0,1.9515458,-0.019553186,0.019643364,0.017973555,0.00054475106,-0.0004166934,-0.00028855354,0.15203829,0.0453558,-0.037659887,1.6078491,-0.0020639303,488.11032,5.8888683,0.4914067,0.461684,0.17726447,0.13146582,inf,inf,inf,inf,1,1,1,1,2,0,2,1,3,1,1,1,0,0
148736000,148736000,904000,47.3977508,8.5456073,0.8013191,-0.0080259405,-5.740692,-0.011039297,0.00741849,0.0,1.7524186,-0.0091611175,0.0058079613,0.020202145,0.00054475106,-0.0004166934,-0.00028855354,-0.9433172,-0.016375007,0.009762122,1.6075388,-0.0020639303,488.11032,5.861724,0.46001744,0.4568942,0.16213824,0.12783079,inf,inf,inf,inf,1,1,1,1,2,0,2,1,3,1,1,1,0,0
149232000,149232000,904000,47.3977508,8.5456073,1.5617934,-0.010278583,-5.7153726,-0.011039297,0.00741849,0.0,1.1247997,0.0051150154,-0.019014921,0.010929703,0.00054475106,-0.0004166934,-0.00028855354,-1.6583711,0.006690825,-0.11145323,1.6077551,-0.0020639303,488.11032,5.8364043,0.46986848,0.45686662,0.16440882,0.12901556,inf,inf,inf,inf,1,1,1,1,2,0,2,1,3,1,1,1,0,0
149736000,149736000,904000,47.3977508,8.5456073,1.9334972,-0.010391871,-5.7049575,-0.011039297,0.00741849,0.0,0.20430462,0.013497142,-0.059765898,-0.019354535,0.00054475106,-0.0004166934,-0.00028855354,-2.0281494,0.023568746,-0.14350842,1.608129,-0.0020639303,488.11032,5.8259892,0.48075423,0.46147716,0.16822019,0.13076109,inf,inf,inf,inf,1,1,1,1,2,0,2,1,3,1,1,1,0,0
150240000,150240000,904000,47.3977508,8.5456073,1.8205602,-0.011581696,-5.7117424,-0.011039297,0.00741849,0.0,-0.75508785,0.015051547,-0.06362869,-0.020730138,0.00054475106,-0.0004166934,-0.00028855354,-1.8401691,0.0064932825,0.0036805866,1.6086775,-0.0020639303,488.11032,5.832774,0.4920128,0.46216002,0.17359969,0.13180892,inf,inf,inf,inf,1,1,1,1,2,0,2,1,3,1,1,1,0,0
150736000,150736000,904000,47.3977508,8.5456073,1.2640051,-0.007796549,-5.71408,-0.011039297,0.00741849,0.0,-1.5211343,0.020492729,-0.04792423,-0.0044648014,0.00054475106,-0.0004166934,-0.00028855354,-1.2250214,-0.0014213,0.02382323,1.609242,-0.0020639303,488.11032,5.8351116,0.46014476,0.45674953,0.16175373,0.1277612,inf,inf,inf,inf,1,1,1,1,2,0,2,1,3,1,1,1,0,0
151240000,151240000,904000,47.3977508,8.5456073,0.3817714,-0.0107896775,-5.7220316,-0.011039297,0.00741849,0.0,-1.9249667,0.017535891,-0.031946868,0.0025918358,0.00054475106,-0.0004166934,-0.00028855354,-0.35072273,0.0024788459,0.039159317,1.609553,-0.0020639303,488.11032,5.8430634,0.47040555,0.45739165,0.16625716,0.12892774,inf,inf,inf,inf,1,1,1,1,2,0,2,1,3,1,1,1,0,0
151736000,151736000,904000,47.3977508,8.5456073,-0.5859073,-0.019120201,-5.720294,-0.011039297,0.00741849,0.0,-1.852849,0.018074835,-0.032211337,0.0016762477,0.00054475106,-0.0004166934,-0.00028855354,0.6634468,0.028201785,-0.015022232,1.609287,-0.0020639303,488.11032,5.8413258,0.4803954,0.46134007,0.16931061,0.1306021,inf,inf,inf,inf,1,1,1,1,2,0,2,1,3,1,1,1,0,0
152240000,152240000,904000,47.3977508,8.5456073,-1.4282707,-0.020849323,-5.71645,-0.011039297,0.00741849,0.0,-1.3108377,0.026545903,-0.03796567,-0.0016150954,0.00054475106,-0.0004166934,-0.00028855354,1.4622291,0.038236145,-0.051073726,1.6088264,-0.0020639303,488.11032,5.837482,0.49178153,0.462011,0.17259063,0.13192125,inf,inf,inf,inf,1,1,1,1,2,0,2,1,3,1,1,1,0,0
152736000,152736000,904000,47.3977508,8.5456073,-1.9122406,-0.01829695,-5.722339,-0.011039297,0.00741849,0.0,-0.46041608,0.03200813,-0.05718016,-0.022062302,0.00054475106,-0.0004166934,-0.00028855354,1.942833,-0.006616741,-0.011259689,1.6083901,-0.0020639303,488.11032,5.843371,0.45972443,0.45645118,0.15996201,0.12797685,inf,inf,inf,inf,1,1,1,1,2,0,2,1,3,1,1,1,0,0
153232000,153232000,904000,47.3977508,8.5456073,-1.95081,-0.023732351,-5.73155,-0.011039297,0.00741849,0.0,0.4901671,0.030270075,-0.05523839,-0.01800206,0.00054475106,-0.0004166934,-0.00028855354,1.9401029,0.0040359297,-0.019675119,1.6078453,-0.0020639303,488.11032,5.852582,0.46933106,0.45631728,0.16572599,0.12888233,inf,inf,inf,inf,1,1,1,1,2,0,2,1,3,1,1,1,0,0
153736000,153736000,904000,47.3977508,8.5456073,-1.5109463,-0.039098587,-5.7337294,-0.011039297,0.00741849,0.0,1.34363,0.030605312,-0.03876347,0.00028597983,0.00054475106,-0.0004166934,-0.00028855354,1.4115019,0.045661595,-0.02351403,1.6076123,-0.0020639303,488.11032,5.854761,0.48029384,0.46088377,0.17236975,0.1304177,inf,inf,inf,inf,1,1,1,1,2,0,2,1,3,1,1,1,0,0
154240000,154240000,904000,47.3977508,8.5456073,-0.69888806,-0.0550912,-5.7360096,-0.011039297,0.00741849,0.0,1.867541,0.040083196,-0.022712648,0.010317115,0.00054475106,-0.0004166934,-0.00028855354,0.615962,0.058900647,-0.009706243,1.6075816,-0.0020639303,488.11032,5.8570414,0.49193302,0.46138832,0.1778746,0.13143596,inf,inf,inf,inf,1,1,1,1,2,0,2,1,3,1,1,1,0,0
154736000,154736000,904000,47.3977508,8.5456073,0.26942775,-0.057953708,-5.7266035,-0.011039297,0.00741849,0.0,1.9346371,0.052101307,-0.021835417,0.012649958,0.00054475106,-0.0004166934,-0.00028855354,-0.35562643,0.01770047,-0.020883044,1.6073339,-0.0020639303,488.11032,5.8476353,0.45977554,0.45594627,0.16303909,0.1275976,inf,inf,inf,inf,1,1,1,1,2,0,2,1,3,1,1,1,0,0
155232000,155232000,904000,47.3977508,8.5456073,1.18201,-0.056168426,-5.7236295,-0.011039297,0.00741849,0.0,1.5266407,0.056938034,-0.020185014,0.011661666,0.00054475106,-0.0004166934,-0.00028855354,-1.2699354,0.020996638,-0.03644358,1.6073381,-0.0020639303,488.11032,5.844661,0.4695496,0.45598754,0.16509476,0.12882283,inf,inf,inf,inf,1,1,1,1,2,0,2,1,3,1,1,1,0,0
155736000,155736000,904000,47.3977508,8.5456073,1.8063405,-0.04893528,-5.7244077,-0.011039297,0.00741849,0.0,0.72623765,0.05730355,-0.031558074,-0.0033384967,0.00054475106,-0.0004166934,-0.00028855354,-1.8724201,-0.030229928,-0.048944723,1.6076541,-0.0020639303,488.11032,5.8454394,0.48051286,0.46079284,0.16797896,0.13071844,inf,inf,inf,inf,1,1,1,1,2,0,2,1,3,1,1,1,0,0
156240000,156240000,904000,47.3977508,8.5456073,1.9752662,-0.040917672,-5.7306294,-0.011039297,0.00741849,0.0,-0.24879538,0.0556812,-0.04482863,-0.016720548,0.00054475106,-0.0004166934,-0.00028855354,-1.9732263,-0.0051544625,-0.0138422465,1.6080815,-0.0020639303,488.11032,5.851661,0.4919498,0.4616304,0.17270249,0.13189782,inf,inf,inf,inf,1,1,1,1,2,0,2,1,3,1,1,1,0,0
156736000,156736000,904000,47.3977508,8.5456073,1.6709656,-0.031207828,-5.746052,-0.011039297,0.00741849,0.0,-1.1449686,0.05079711,-0.025096597,-0.005373231,0.00054475106,-0.0004166934,-0.00028855354,-1.6528392,0.027239904,0.095592804,1.6087941,-0.0020639303,488.11032,5.8670835,0.4600123,0.45253086,0.16096765,0.12733634,inf,inf,inf,inf,1,1,1,1,2,0,2,1,3,1,1,1,0,0
157240000,157240000,904000,47.3977508,8.5456073,0.97023803,-0.016647788,-5.7437215,-0.011039297,0.00741849,0.0,-1.7831827,0.04447345,-0.012223915,0.008366545,0.00054475106,-0.0004166934,-0.00028855354,-0.9208045,0.006881804,0.0033648682,1.6094843,-0.0020639303,488.11032,5.8647532,0.47025353,0.4572633,0.16620918,0.1289799,inf,inf,inf,inf,1,1,1,1,2,0,2,1,3,1,1,1,0,0
157740000,157736000,904000,47.3977508,8.5456073,0.03956928,-0.007723931,-5.741416,-0.011039297,0.00741849,0.0,-1.9965557,0.035163186,-0.008888721,0.009441336,0.00054475106,-0.0004166934,-0.00028855354,0.037572287,0.02024303,0.013660639,1.6094109,-0.0020639303,488.11032,5.8624477,0.48033783,0.46130127,0.17006466,0.13056743,inf,inf,inf,inf,1,1,1,1,2,0,2,1,3,1,1,1,0,0
158236000,158232000,904000,47.3977508,8.5456073,-0.8973339,-0.00828507,-5.7376943,-0.011039297,0.00741849,0.0,-1.7291462,0.028255984,-0.018999262,0.00045893638,0.00054475106,-0.0004166934,-0.00028855354,1.0434223,0.035510883,-0.05719438,1.6090875,-0.0020639303,488.11032,5.858726,0.49094903,0.46127146,0.17300296,0.13167791,inf,inf,inf,inf,1,1,1,1,2,0,2,1,3,1,1,1,0,0
158740000,158736000,904000,47.3977508,8.5456073,-1.6164021,-0.01214053,-5.7398095,-0.011039297,0.00741849,0.0,-1.0331919,0.02808185,-0.02565938,-0.0073926025,0.00054475106,-0.0004166934,-0.00028855354,1.733092,0.0006710615,-0.02518296,1.6085556,-0.0020639303,488.11032,5.8608413,0.45987394,0.45646653,0.15972883,0.12798917,inf,inf,inf,inf,1,1,1,1,2,0,2,1,3,1,1,1,0,0
159236000,159232000,904000,47.3977508,8.5456073,-1.9269443,-0.024748035,-5.752469,-0.011039297,0.00741849,0.0,-0.11087135,0.025997357,-0.042127524,-0.027554385,0.00054475106,-0.0004166934,-0.00028855354,1.9552174,0.020194972,0.030317342,1.608079,-0.0020639303,488.11032,5.873501,0.46958053,0.46015224,0.16466986,0.12948263,inf,inf,inf,inf,1,1,1,1,2,0,2,1,3,1,1,1,0,0
159732000,159728000,904000,47.3977508,8.5456073,-1.7615175,-0.03159844,-5.758463,-0.011039297,0.00741849,0.0,0.82797104,0.03506274,-0.026061973,-0.007373033,0.00054475106,-0.0004166934,-0.00028855354,1.7575073,0.035446774,0.02411194,1.6079023,-0.0020639303,488.11032,5.8794947,0.4797656,0.45994076,0.17090313,0.1303129,inf,inf,inf,inf,1,1,1,1,2,0,2,1,3,1,1,1,0,0
160236000,160232000,904000,47.3977508,8.5456073,-1.1488333,-0.038394023,-5.7547126,-0.011039297,0.00741849,0.0,1.5731456,0.033590555,-0.013740426,0.0075881113,0.00054475106,-0.0004166934,-0.00028855354,1.0810895,0.03728816,-0.008198432,1.607531,-0.0020639303,488.11032,5.8757443,0.491419,0.46452335,0.17743959,0.1318703,inf,inf,inf,inf,1,1,1,1,2,0,2,1,3,1,1,1,0,0
160740000,160740000,904000,47.3977508,8.5456073,-0.23213585,-0.0485508,-5.742598,-0.011039297,0.00741849,0.0,1.9197558,0.03701464,-0.009639196,0.015950477,0.00054475106,-0.0004166934,-0.00028855354,0.20391516,0.023645973,-0.026720574,1.6073668,-0.0020639303,488.11032,5.86363,0.4602728,0.4557441,0.16419736,0.12756301,inf,inf,inf,inf,1,1,1,1,2,0,2,1,3,1,1,1,0,0
161236000,161236000,904000,47.3977508,8.5456073,0.7181033,-0.049928855,-5.7424307,-0.011039297,0.00741849,0.0,1.7803378,0.04665909,-0.0055981297,0.013055563,0.00054475106,-0.0004166934,-0.00028855354,-0.80057585,0.021544298,0.055747103,1.6072373,-0.0020639303,488.11032,5.8634624,0.47027606,0.4596254,0.16674612,0.1292552,inf,inf,inf,inf,1,1,1,1,2,0,2,1,3,1,1,1,0,0
161740000,161740000,904000,47.3977508,8.5456073,1.5157728,-0.037590314,-5.736145,-0.011039297,0.00741849,0.0,1.1948693,0.046902,-0.0050343215,0.012144539,0.00054475106,-0.0004166934,-0.00028855354,-1.5750154,0.0012586823,-0.055940818,1.6073498,-0.0020639303,488.11032,5.857177,0.48145372,0.4601626,0.16912016,0.1305852,inf,inf,inf,inf,1,1,1,1,2,0,2,1,3,1,1,1,0,0
162236000,162236000,904000,47.3977508,8.5456073,1.9439704,-0.028965954,-5.726898,-0.011039297,0.00741849,0.0,0.3167747,0.040728718,-0.030345451,-0.0056304927,0.00054475106,-0.0004166934,-0.00028855354,-1.9751774,-0.007335562,-0.08680391,1.6076796,-0.0020639303,488.11032,5.84793,0.49202794,0.46389702,0.1723667,0.13213296,inf,inf,inf,inf,1,1,1,1,2,0,2,1,3,1,1,1,0,0
162732000,162732000,904000,47.3977508,8.5456073,1.9096683,-0.01969778,-5.7138157,-0.011039297,0.00741849,0.0,-0.6453872,0.032115493,-0.058113486,-0.014868384,0.00054475106,-0.0004166934,-0.00028855354,-1.8997915,-0.05942785,0.005290843,1.6084243,-0.0020639303,488.11032,5.8348475,0.45988426,0.4543885,0.16018076,0.12753105,inf,inf,inf,inf,1,1,1,1,2,0,2,1,3,1,1,1,0,0
163236000,163236000,904000,47.3977508,8.5456073,1.4213687,-0.009734008,-5.7016964,-0.011039297,0.00741849,0.0,-1.465951,0.028220024,-0.05846773,-0.0016052867,0.00054475106,-0.0004166934,-0.00028855354,-1.3738667,-0.010883639,-0.008265487,1.6089761,-0.0020639303,488.11032,5.822728,0.47016922,0.45891958,0.16577846,0.1291284,inf,inf,inf,inf,1,1,1,1,2,0,2,1,3,1,1,1,0,0
163732000,163732000,904000,47.3977508,8.5456073,0.590261,0.009491537,-5.6993837,-0.011039297,0.00741849,0.0,-1.9369754,0.017891953,-0.048734754,0.0073655853,0.00054475106,-0.0004166934,-0.00028855354,-0.54139155,-0.0420594,-0.031672414,1.6091415,-0.0020639303,488.11032,5.8204155,0.48012266,0.45890522,0.17029372,0.13008176,inf,inf,inf,inf,1,1,1,1,2,0,2,1,3,1,1,1,0,0
164236000,164236000,904000,47.3977508,8.5456073,-0.40265542,0.028683338,-5.697833,-0.011039297,0.00741849,0.0,-1.9413241,0.0060678,-0.054489445,-0.0007479348,0.00054475106,-0.0004166934,-0.00028855354,0.51920164,-0.0717849,-0.041391697,1.6088297,-0.0020639303,488.11032,5.818865,0.49149892,0.4636419,0.17393856,0.13191001,inf,inf,inf,inf,1,1,1,1,2,0,2,1,3,1,1,1,0,0
164740000,164740000,904000,47.3977508,8.5456073,-1.2873102,0.04187998,-5.7007914,-0.011039297,0.00741849,0.0,-1.4571327,-0.008461209,-0.058778875,-0.0071647684,0.00054475106,-0.0004166934,-0.00028855354,1.3765584,-0.049518548,-0.032878477,1.6087185,-0.0020639303,488.11032,5.821823,0.46033272,0.45502207,0.16013709,0.1277813,inf,inf,inf,inf,1,1,1,1,2,0,2,1,3,1,1,1,0,0
165236000,165236000,904000,47.3977508,8.5456073,-1.8351566,0.044184137,-5.716815,-0.011039297,0.00741849,0.0,-0.6371349,-0.023152344,-0.06916968,-0.02831814,0.00054475106,-0.0004166934,-0.00028855354,1.8567221,-0.04579105,0.0008810311,1.6085318,-0.0020639303,488.11032,5.8378468,0.4699805,0.45883805,0.16413485,0.12939492,inf,inf,inf,inf,1,1,1,1,2,0,2,1,3,1,1,1,0,0
165732000,165732000,904000,47.3977508,8.5456073,-1.9370984,0.04456726,-5.738766,-0.011039297,0.00741849,0.0,0.31623146,-0.029943854,-0.053793993,-0.021387506,0.00054475106,-0.0004166934,-0.00028855354,1.9198565,-0.018541744,0.014833174,1.6082745,-0.0020639303,488.11032,5.859798,0.4800907,0.4587955,0.16977395,0.13032816,inf,inf,inf,inf,1,1,1,1,2,0,2,1,3,1,1,1,0,0
166236000,166236000,904000,47.3977508,8.5456073,-1.570016,0.043517813,-5.7483435,-0.011039297,0.00741849,0.0,1.2040079,-0.032296337,-0.031127837,-0.0019988464,0.00054475106,-0.0004166934,-0.00028855354,1.5411695,-0.036646903,0.051855106,1.6080043,-0.0020639303,488.11032,5.869375,0.49163997,0.46352354,0.17663786,0.13189667,inf,inf,inf,inf,1,1,1,1,2,0,2,1,3,1,1,1,0,0
166740000,166740000,904000,47.3977508,8.5456073,-0.8025471,0.043046094,-5.7481585,-0.011039297,0.00741849,0.0,1.8035353,-0.032654434,-0.009257739,0.016276598,0.00054475106,-0.0004166934,-0.00028855354,0.8050951,-0.024427455,0.025874002,1.6077447,-0.0020639303,488.11032,5.86919,0.46038592,0.45477584,0.16438167,0.12748836,inf,inf,inf,inf,1,1,1,1,2,0,2,1,3,1,1,1,0,0
167236000,167236000,904000,47.3977508,8.5456073,0.15695013,0.04236285,-5.740455,-0.011039297,0.00741849,0.0,1.9481515,-0.035792157,-0.005821375,0.018368782,0.00054475106,-0.0004166934,-0.00028855354,-0.24264286,-0.005954192,-0.024296341,1.6074673,-0.0020639303,488.11032,5.861487,0.47019494,0.4584367,0.16779435,0.12904744,inf,inf,inf,inf,1,1,1,1,2,0,2,1,3,1,1,1,0,0
167732000,167732000,904000,47.3977508,8.5456073,1.0753536,0.038713977,-5.7288427,-0.011039297,0.00741849,0.0,1.6073503,-0.035268508,-0.010578659,0.017031472,0.00054475106,-0.0004166934,-0.00028855354,-1.1476275,-0.020234175,-0.043489967,1.6075834,-0.0020639303,488.11032,5.8498745,0.48046064,0.46224064,0.16993316,0.13073364,inf,inf,inf,inf,1,1,1,1,2,0,2,1,3,1,1,1,0,0
168236000,168236000,904000,47.3977508,8.5456073,1.7428331,0.040284976,-5.72056,-0.011039297,0.00741849,0.0,0.8638693,-0.0339083,-0.029407423,0.0008778436,0.00054475106,-0.0004166934,-0.00028855354,-1.8052936,-0.056867238,-0.067370936,1.6078988,-0.0020639303,488.11032,5.841592,0.49195033,0.46273077,0.17265092,0.13198265,inf,inf,inf,inf,1,1,1,1,2,0,2,1,3,1,1,1,0,0
168740000,168740000,904000,47.3977508,8.5456073,1.9771079,0.04328923,-5.7275157,-0.011039297,0.00741849,0.0,-0.09477418,-0.036992006,-0.04744968,-0.018957367,0.00054475106,-0.0004166934,-0.00028855354,-1.9876434,-0.054884553,0.021060927,1.608058,-0.0020639303,488.11032,5.8485475,0.46068022,0.45772216,0.15998411,0.12812597,inf,inf,inf,inf,1,1,1,1,2,0,2,1,3,1,1,1,0,0
169236000,169236000,904000,47.3977508,8.5456073,1.7410954,0.05632782,-5.7334294,-0.011039297,0.00741849,0.0,-1.0069522,-0.03661634,-0.036979612,-0.0072200894,0.00054475106,-0.0004166934,-0.00028855354,-1.6973592,-0.032707654,0.06284564,1.6085069,-0.0020639303,488.11032,5.854461,0.47019824,0.4573344,0.16492757,0.12894447,inf,inf,inf,inf,1,1,1,1,2,0,2,1,3,1,1,1,0,0
169740000,169740000,904000,47.3977508,8.5456073,1.0709904,0.06460471,-5.7339597,-0.011039297,0.00741849,0.0,-1.6981442,-0.043139417,-0.02080872,0.007995434,0.00054475106,-0.0004166934,-0.00028855354,-1.0246361,-0.07702342,-0.004153698,1.6087843,-0.0020639303,488.11032,5.8549914,0.48097366,0.46173468,0.1703394,0.13050717,inf,inf,inf,inf,1,1,1,1,2,0,2,1,3,1,1,1,0,0
170236000,170236000,904000,47.3977508,8.5456073,0.1549568,0.07099857,-5.723511,-0.011039297,0.00741849,0.0,-1.9678993,-0.04700281,-0.020582182,0.012487309,0.00054475106,-0.0004166934,-0.00028855354,-0.04978239,-0.015502867,-0.07607508,1.6089903,-0.0020639303,488.11032,5.844543,0.49144247,0.4614553,0.17437458,0.1314684,inf,inf,inf,inf,1,1,1,1,2,0,2,1,3,1,1,1,0,0
170732000,170732000,904000,47.3977508,8.5456073,-0.80210096,0.082349904,-5.7163367,-0.011039297,0.00741849,0.0,-1.7671363,-0.050704874,-0.03907375,-0.0027213169,0.00054475106,-0.0004166934,-0.00028855354,0.8913063,-0.04219303,-0.029117798,1.6089836,-0.0020639303,488.11032,5.8373685,0.45951802,0.45594367,0.16031389,0.12769838,inf,inf,inf,inf,1,1,1,1,2,0,2,1,3,1,1,1,0,0
171236000,171236000,904000,47.3977508,8.5456073,-1.584826,0.08347549,-5.715429,-0.011039297,0.00741849,0.0,-1.1173863,-0.059856858,-0.044221632,-0.0059561078,0.00054475106,-0.0004166934,-0.00028855354,1.670198,-0.006072732,-0.045205463,1.6085908,-0.0020639303,488.11032,5.8364606,0.46993682,0.45651385,0.16390531,0.12906049,inf,inf,inf,inf,1,1,1,1,2,0,2,1,3,1,1,1,0,0
171732000,171732000,904000,47.3977508,8.5456073,-1.9622058,0.06969136,-5.7265577,-0.011039297,0.00741849,0.0,-0.20420107,-0.05917039,-0.05935009,-0.024446603,0.00054475106,-0.0004166934,-0.00028855354,1.9783262,-0.012942094,-0.01577474,1.608252,-0.0020639303,488.11032,5.8475895,0.48003855,0.460251,0.16877888,0.13061108,inf,inf,inf,inf,1,1,1,1,2,0,2,1,3,1,1,1,0,0
172236000,172236000,904000,47.3977508,8.5456073,-1.8584557,0.049794257,-5.748,-0.011039297,0.00741849,0.0,0.76782084,-0.05292669,-0.041000243,-0.01618293,0.00054475106,-0.0004166934,-0.00028855354,1.8444684,0.04493022,0.06267893,1.6082201,-0.0020639303,488.11032,5.869032,0.49155563,0.46472934,0.1755124,0.13216785,inf,inf,inf,inf,1,1,1,1,2,0,2,1,3,1,1,1,0,0
