timestamp,timestamp_sample,ref_timestamp,ref_lat,ref_lon,x,y,z,delta_xy[0],delta_xy[1],delta_z,vx,vy,vz,z_deriv,delta_vxy[0],delta_vxy[1],delta_vz,ax,ay,az,heading,delta_heading,ref_alt,dist_bottom,eph,epv,evh,evv,vxy_max,vz_max,hagl_min,hagl_max,xy_valid,z_valid,v_xy_valid,v_z_valid,xy_reset_counter,z_reset_counter,vxy_reset_counter,vz_reset_counter,heading_reset_counter,heading_good_for_control,xy_global,z_global,dist_bottom_valid,dist_bottom_sensor_bitfield
9244000,9240000,904000,47.3977508,8.5456073,-0.0021437497,0.006695075,0.012914189,-0.011087549,0.007383476,0.0,-0.002499255,0.0007583231,0.00016161964,-0.0014867941,0.00035731617,-0.00067297206,-0.0008520037,-0.01642952,-0.028079374,0.019398516,1.6224433,-0.000111699104,488.11038,0.1,0.4472242,0.29270267,0.015467814,0.010971159,inf,inf,inf,inf,1,1,1,1,2,0,2,1,2,0,1,1,1,0
9740000,9736000,904000,47.3977508,8.5456073,-0.003121666,0.007284395,0.01155303,-0.011087549,0.007383476,0.0,-0.002245282,0.00037748273,-0.0006918638,-0.0028830154,0.00035731617,-0.00067297206,-0.0008520037,-0.0015738623,0.011748721,0.0074626873,1.6197345,-0.000111699104,488.11038,0.1,0.4264185,0.2839099,0.020725066,0.01473781,inf,inf,inf,inf,1,1,1,1,2,0,2,1,2,0,1,1,1,0
10244000,10240000,904000,47.3977508,8.5456073,-0.0023879888,0.007835993,0.011362881,-0.011087549,0.007383476,0.0,-0.0017400229,0.0025612176,-0.0016538581,-0.0028604264,0.00035731617,-0.00067297206,-0.0008520037,0.02122046,0.0011232622,0.010166316,1.6192834,-0.000111699104,488.11038,0.10075363,0.4082639,0.27672017,0.012244796,0.0086929,inf,inf,inf,inf,1,1,1,1,2,0,2,1,2,0,1,1,1,0
10740000,10736000,904000,47.3977508,8.5456073,-0.0022155568,0.007466483,0.010347398,-0.011087549,0.007383476,0.0,0.0012859727,0.00029000136,0.000618433,-0.00060105027,0.00035731617,-0.00067297206,-0.0008520037,0.0011460651,0.013110504,-0.0021159647,1.6170055,-0.000111699104,488.11038,0.10072559,0.37798288,0.26925468,0.018145202,0.012942144,inf,inf,inf,inf,1,1,1,1,2,0,2,1,2,0,1,1,1,0
11244000,11240000,904000,47.3977508,8.5456073,-0.0017318272,0.0071216454,0.012007976,-0.011087549,0.007383476,0.0,0.00045541045,0.002205917,-0.0004041208,0.0002405361,0.00035731617,-0.00067297206,-0.0008520037,-0.016790202,-0.0061575114,-0.0018980353,1.6155168,-0.000111699104,488.11038,0.10120559,0.3651681,0.26310056,0.008125502,0.0057598865,inf,inf,inf,inf,1,1,1,1,2,0,2,1,2,0,1,1,1,0
11740000,11736000,904000,47.3977508,8.5456073,-0.0022285294,0.00663576,0.012277122,-0.011087549,0.007383476,0.0,-0.0013672431,-5.4007352e-05,0.0005083337,0.0013900923,0.00035731617,-0.00067297206,-0.0008520037,-0.001414024,0.0452348,0.037666406,1.614665,-0.000111699104,488.11038,0.10058722,0.35357666,0.2573518,0.015389316,0.010972295,inf,inf,inf,inf,1,1,1,1,2,0,2,1,2,0,1,1,1,0
12244000,12240000,904000,47.3977508,8.5456073,-0.0021832308,0.006523872,0.012141305,-0.011087549,0.007383476,0.0,-0.00018713377,0.0019228833,0.0015275102,0.0012349231,0.00035731617,-0.00067297206,-0.0008520037,0.040035766,0.00027401253,0.020571982,1.6136518,-0.000111699104,488.11038,0.1,0.3430294,0.2513178,0.021038447,0.015083784,inf,inf,inf,inf,1,1,1,1,2,0,2,1,2,0,1,1,1,0
12740000,12736000,904000,47.3977508,8.5456073,-0.0014568162,0.0066924575,0.011872131,-0.011087549,0.007383476,0.0,0.0026584573,0.00011775869,0.0035775376,0.0023850251,0.00035731617,-0.00067297206,-0.0008520037,0.017877711,-0.0062931064,0.017822718,1.611795,-0.000111699104,488.11038,0.1,0.3248534,0.24657969,0.044637367,0.03231913,inf,inf,inf,inf,1,1,1,1,2,0,2,1,2,0,1,1,1,0
13244000,13240000,904000,47.3977508,8.5456073,0.00087495195,0.0074123912,0.01316383,-0.011087549,0.007383476,0.0,0.0066652447,0.00061112817,0.008594054,0.006870336,0.00035731617,-0.00067297206,-0.0008520037,-0.011823721,-0.009430529,0.0053215767,1.6111954,-0.000111699104,488.11038,0.1,0.3186876,0.24276872,0.066107914,0.047314033,inf,inf,inf,inf,1,1,1,1,2,0,2,1,2,0,1,1,1,0
13740000,13736000,904000,47.3977508,8.5456073,0.004466981,0.007538856,0.01698744,-0.011087549,0.007383476,0.0,0.010746187,0.00041003097,0.013569427,0.011245433,0.00035731617,-0.00067297206,-0.0008520037,0.041817166,0.00058728614,0.019491648,1.6107578,-0.000111699104,488.11038,0.1,0.3166628,0.24231674,0.08717558,0.06119796,inf,inf,inf,inf,1,1,1,1,2,0,2,1,2,0,1,1,1,0
14244000,14240000,904000,47.3977508,8.5456073,0.009015055,0.007253268,0.021086449,-0.011087549,0.007383476,0.0,0.006874594,-0.0019538822,-0.012501743,-0.014979657,0.00035731617,-0.00067297206,-0.0008520037,-0.043385405,-1.9412253e-05,-0.24639069,1.6113347,-0.000111699104,488.11038,0.100032814,0.32129708,0.24625325,0.10872772,0.07464469,inf,inf,inf,inf,1,1,1,1,2,0,2,1,2,0,1,1,1,0
14740000,14736000,904000,47.3977508,8.5456073,-0.009850457,-0.00743924,-0.012778985,-0.011087549,0.007383476,0.0,-0.11344007,-0.10699433,-0.13375446,-0.13600712,0.00035731617,-0.00067297206,-0.0008520037,-0.2881988,-0.28755817,-0.39924398,1.6204652,-0.000111699104,488.11038,0.13390957,0.32263452,0.25402898,0.12386927,0.08554148,inf,inf,inf,inf,1,1,1,1,2,0,2,1,2,0,1,1,1,0
15244000,15240000,904000,47.3977508,8.5456073,-0.08016171,-0.06864581,-0.13780935,-0.011087549,0.007383476,0.0,-0.117243394,-0.10630498,-0.34969863,-0.35281774,0.00035731617,-0.00067297206,-0.0008520037,0.13655666,0.14601077,-0.3967909,1.6187873,-0.000111699104,488.11038,0.25893992,0.340887,0.2687228,0.14232834,0.09677304,inf,inf,inf,inf,1,1,1,1,2,0,2,1,2,0,1,1,1,0
15740000,15736000,904000,47.3977508,8.5456073,-0.13004902,-0.10404054,-0.359275,-0.011087549,0.007383476,0.0,-0.030869855,-0.025736755,-0.521475,-0.5261119,0.00035731617,-0.00067297206,-0.0008520037,0.21762185,0.18604179,-0.3490122,1.6172438,-0.000111699104,488.11038,0.4804056,0.3649884,0.28727195,0.15808123,0.106517114,inf,inf,inf,inf,1,1,1,1,2,0,2,1,2,0,1,1,1,0
16244000,16240000,904000,47.3977508,8.5456073,-0.1348454,-0.10185051,-0.663698,-0.011087549,0.007383476,0.0,0.057130333,0.053185355,-0.6550417,-0.66268617,0.00035731617,-0.00067297206,-0.0008520037,0.15491797,0.16960332,-0.21614227,1.6156193,-0.000111699104,488.11038,0.7848286,0.39418098,0.31108266,0.17176966,0.115226045,inf,inf,inf,inf,1,1,1,1,2,0,2,1,2,0,1,1,1,0
16740000,16736000,904000,47.3977508,8.5456073,-0.11126929,-0.071573265,-1.0198051,-0.011087549,0.007383476,0.0,0.1047479,0.09804869,-0.75333774,-0.7620861,0.00035731617,-0.00067297206,-0.0008520037,0.07856896,0.06738055,-0.21688919,1.6156054,-0.000111699104,488.11038,1.1409357,0.39118388,0.33031,0.16464676,0.11805721,inf,inf,inf,inf,1,1,1,1,2,0,2,1,2,0,1,1,1,0
17244000,17240000,904000,47.3977508,8.5456073,-0.076138936,-0.034796007,-1.4215385,-0.011087549,0.007383476,0.0,0.118206404,0.10682258,-0.8367833,-0.84251803,0.00035731617,-0.00067297206,-0.0008520037,0.02629557,0.006271933,-0.13668555,1.6150087,-0.000111699104,488.11038,1.542669,0.41639093,0.35369852,0.17173654,0.12314449,inf,inf,inf,inf,1,1,1,1,2,0,2,1,2,0,1,1,0,0
17740000,17736000,904000,47.3977508,8.5456073,-0.03967414,0.00045200717,-1.8613591,-0.011087549,0.007383476,0.0,0.11081679,0.09606666,-0.8971322,-0.9079882,0.00035731617,-0.00067297206,-0.0008520037,0.02796306,-0.029735964,-0.08199736,1.6113223,-0.0006440282,488.11038,1.9824897,0.43956673,0.3771843,0.20042397,0.12710913,inf,inf,inf,inf,1,1,1,1,2,0,2,1,3,0,1,1,0,0
18244000,18240000,904000,47.3977508,8.5456073,0.0021527577,0.033279337,-2.3389359,-0.011087549,0.007383476,0.0,0.09651406,0.07767612,-0.9414176,-0.9587686,0.00035731617,-0.00067297206,-0.0008520037,-0.027692206,-0.03371472,-0.051620413,1.6121523,-0.0006440282,488.11038,2.4600663,0.46260527,0.39985323,0.30968016,0.13020228,inf,inf,inf,inf,1,1,1,1,2,0,2,1,3,0,1,1,0,0
18740000,18736000,904000,47.3977508,8.5456073,0.033433832,0.06218473,-2.839528,-0.011087549,0.007383476,0.0,0.06628238,0.050514653,-0.9653755,-0.9958211,0.00035731617,-0.00067297206,-0.0008520037,-0.060071263,-0.0720474,-0.049881633,1.6135848,-0.0006440282,488.11038,2.9606586,0.438996,0.40574217,0.2822006,0.12642752,inf,inf,inf,inf,1,1,1,1,2,0,2,1,3,1,1,1,0,0
19244000,19240000,904000,47.3977508,8.5456073,0.057954386,0.08660185,-3.3514874,-0.011087549,0.007383476,0.0,0.043351065,0.028787836,-0.9906136,-1.0232102,0.00035731617,-0.00067297206,-0.0008520037,-0.040182076,-0.09062737,-0.008130445,1.612532,-0.0006440282,488.11038,3.4726179,0.45668927,0.4229951,0.29767206,0.12806708,inf,inf,inf,inf,1,1,1,1,2,0,2,1,3,1,1,1,0,0
19740000,19736000,904000,47.3977508,8.5456073,0.06814501,0.106827416,-3.875498,-0.011087549,0.007383476,0.0,0.013851434,0.01309934,-1.0082582,-1.0501279,0.00035731617,-0.00067297206,-0.0008520037,-0.034832094,-0.058679294,0.027609987,1.6127069,-0.0006440282,488.11038,3.9966285,0.47495282,0.43392184,0.29803222,0.12854297,inf,inf,inf,inf,1,1,1,1,2,0,2,1,3,1,1,1,0,0
20244000,20240000,904000,47.3977508,8.5456073,0.058746766,0.10951678,-4.405614,-0.011087549,0.007383476,0.0,-0.005492089,-0.012843401,-1.0203004,-1.0595368,0.00035731617,-0.00067297206,-0.0008520037,0.0066830683,-0.05851668,-0.044610348,1.6128725,-0.0006440282,488.11038,4.5267444,0.4950045,0.44690228,0.29365554,0.12968563,inf,inf,inf,inf,1,1,1,1,2,0,2,1,3,1,1,1,0,0
20740000,20736000,904000,47.3977508,8.5456073,0.051750947,0.1032545,-4.9399137,-0.011087549,0.007383476,0.0,-0.008141806,-0.023363568,-1.0345523,-1.0763015,0.00035731617,-0.00067297206,-0.0008520037,0.024606297,-0.029882414,-0.009505077,1.6119229,-0.0006440282,488.11038,5.061044,0.45779076,0.44222856,0.23441008,0.12484979,inf,inf,inf,inf,1,1,1,1,2,0,2,1,3,1,1,1,0,0
21244000,21240000,904000,47.3977508,8.5456073,0.038871698,0.1032592,-5.481379,-0.011087549,0.007383476,0.0,-0.010354148,-0.025994278,-1.0246159,-1.0629987,0.00035731617,-0.00067297206,-0.0008520037,0.022622522,-0.032537993,0.69624925,1.6122135,-0.0006440282,488.11038,5.6025095,0.4729038,0.45174155,0.23228598,0.12610023,inf,inf,inf,inf,1,1,1,1,2,0,2,1,3,1,1,1,0,0
21740000,21736000,904000,47.3977508,8.5456073,0.027919058,0.09330507,-5.758485,-0.011087549,0.007383476,0.0,0.07247003,-0.043751657,-0.01900285,-0.066454224,0.00035731617,-0.00067297206,-0.0008520037,0.75194556,0.0044897893,0.9183101,1.6121848,-0.0006440282,488.11038,5.8796153,0.48716706,0.45527524,0.2269159,0.1266062,inf,inf,inf,inf,1,1,1,1,2,0,2,1,3,1,1,1,0,0
22244000,22240000,904000,47.3977508,8.5456073,0.17827947,0.0719571,-5.778405,-0.011087549,0.007383476,0.0,0.62233245,-0.03587197,-0.066493034,-0.1108058,0.00035731617,-0.00067297206,-0.0008520037,1.0895072,0.038635056,0.007530674,1.6102611,-0.0006440282,488.11038,5.8995357,0.5025086,0.45834267,0.22521587,0.1273864,inf,inf,inf,inf,1,1,1,1,2,0,2,1,3,1,1,1,0,0
22740000,22736000,904000,47.3977508,8.5456073,0.586311,0.05434108,-5.8214903,-0.011087549,0.007383476,0.0,1.0423731,-0.028490229,-0.0004378379,-0.04635754,0.00035731617,-0.00067297206,-0.0008520037,0.51997703,0.0027329368,0.14138407,1.6110457,-0.0006440282,488.11038,5.9426208,0.46492103,0.45374548,0.19407332,0.12394181,inf,inf,inf,inf,1,1,1,1,2,0,2,1,3,1,1,1,0,0
23244000,23240000,904000,47.3977508,8.5456073,1.162958,0.03910637,-5.8305836,-0.011087549,0.007383476,0.0,1.0931689,-0.020175911,0.037037194,-0.0056019025,0.00035731617,-0.00067297206,-0.0008520037,-0.43248186,0.011655457,0.078995705,1.61045,-0.0006440282,488.11038,5.951714,0.47765332,0.45940244,0.19321668,0.12579587,inf,inf,inf,inf,1,1,1,1,2,0,2,1,3,1,1,1,0,0
23740000,23736000,904000,47.3977508,8.5456073,1.6424441,0.024972659,-5.831253,-0.011087549,0.007383476,0.0,0.66809964,-0.012691764,0.0478954,0.004539108,0.00035731617,-0.00067297206,-0.0008520037,-1.2930235,0.018609308,0.037966292,1.6100757,-0.0006440282,488.11038,5.9523835,0.48953423,0.4600041,0.19186775,0.12697761,inf,inf,inf,inf,1,1,1,1,2,0,2,1,3,1,1,1,0,0
24244000,24240000,904000,47.3977508,8.5456073,1.8340842,0.024731336,-5.82923,-0.011087549,0.007383476,0.0,-0.09245121,-0.003721945,0.04091954,-0.0007204991,0.00035731617,-0.00067297206,-0.0008520037,-1.7594633,-0.0023608007,0.012724659,1.6105722,-0.0006440282,488.11038,5.9503603,0.50243944,0.46498412,0.19377862,0.1288842,inf,inf,inf,inf,1,1,1,1,2,0,2,1,3,1,1,1,0,0
24740000,24736000,904000,47.3977508,8.5456073,1.6237259,0.033795353,-5.8272195,-0.011087549,0.007383476,0.0,-0.9223275,-0.0034944601,0.0418488,0.0027991664,0.00035731617,-0.00067297206,-0.0008520037,-1.668686,-0.018421385,0.014850869,1.6104293,-0.0006440282,488.11038,5.94835,0.46620497,0.45532268,0.17606609,0.12485844,inf,inf,inf,inf,1,1,1,1,2,0,2,1,3,1,1,1,0,0
25244000,25240000,904000,47.3977508,8.5456073,1.0117267,0.06171939,-5.82674,-0.011087549,0.007383476,0.0,-1.6013782,-0.007642341,0.054682173,0.012415661,0.00035731617,-0.00067297206,-0.0008520037,-1.072163,-0.047272302,0.065271735,1.6104022,-0.0006440282,488.11038,5.9478703,0.47743368,0.45970657,0.18128091,0.1267057,inf,inf,inf,inf,1,1,1,1,2,0,2,1,3,1,1,1,0,0
25740000,25736000,904000,47.3977508,8.5456073,0.13755597,0.097224064,-5.822969,-0.011087549,0.007383476,0.0,-1.902412,-0.014666684,0.06329966,0.016880985,0.00035731617,-0.00067297206,-0.0008520037,-0.14967954,-0.054104034,0.0077551226,1.6094142,-0.0006440282,488.11038,5.9440994,0.4882092,0.45960346,0.18339458,0.12804382,inf,inf,inf,inf,1,1,1,1,2,0,2,1,3,1,1,1,0,0
26244000,26240000,904000,47.3977508,8.5456073,-0.7973563,0.12922281,-5.822196,-0.011087549,0.007383476,0.0,-1.7274954,-0.038033403,0.061181724,0.010157707,0.00035731617,-0.00067297206,-0.0008520037,0.837854,-0.12444129,0.017601995,1.6097419,-0.0006440282,488.11038,5.9433265,0.5000171,0.46037126,0.18290131,0.12973785,inf,inf,inf,inf,1,1,1,1,2,0,2,1,3,1,1,1,0,0
26740000,26736000,904000,47.3977508,8.5456073,-1.5405309,0.1394152,-5.8235025,-0.011087549,0.007383476,0.0,-1.1170765,-0.06437001,0.052585807,-0.0016360856,0.00035731617,-0.00067297206,-0.0008520037,1.6173487,-0.053202905,-0.033685934,1.6103023,-0.0006440282,488.11038,5.944633,0.46531534,0.45504257,0.16482966,0.12650928,inf,inf,inf,inf,1,1,1,1,2,0,2,1,3,1,1,1,0,0
27244000,27240000,904000,47.3977508,8.5456073,-1.9212284,0.12884022,-5.8522196,-0.011087549,0.007383476,0.0,-0.21591519,-0.07266817,0.05438099,-0.020938607,0.00035731617,-0.00067297206,-0.0008520037,1.9313,0.0018946301,0.06291549,1.6106539,-0.0006440282,488.11038,5.97335,0.47574657,0.459581,0.1718493,0.12855448,inf,inf,inf,inf,1,1,1,1,2,0,2,1,3,1,1,1,0,0
27740000,27736000,904000,47.3977508,8.5456073,-1.8294592,0.10198484,-5.870175,-0.011087549,0.007383476,0.0,0.7257699,-0.0686526,0.07917673,-0.0048999265,0.00035731617,-0.00067297206,-0.0008520037,1.8479809,0.043449994,0.07458403,1.6101797,-0.0006440282,488.11038,5.9913054,0.48563385,0.4595565,0.18373545,0.12967701,inf,inf,inf,inf,1,1,1,1,2,0,2,1,3,1,1,1,0,0
28244000,28240000,904000,47.3977508,8.5456073,-1.2769116,0.05925751,-5.8649216,-0.011087549,0.007383476,0.0,1.5204216,-0.057709295,0.09988263,0.019743228,0.00035731617,-0.00067297206,-0.0008520037,1.2738124,0.0535909,0.04809722,1.6093091,-0.0006440282,488.11038,5.986052,0.49734458,0.46024358,0.19590035,0.13085215,inf,inf,inf,inf,1,1,1,1,2,0,2,1,3,1,1,1,0,0
28740000,28736000,904000,47.3977508,8.5456073,-0.41565084,0.02068023,-5.850204,-0.011087549,0.007383476,0.0,1.9389468,-0.032540414,0.10144702,0.025938476,0.00035731617,-0.00067297206,-0.0008520037,0.38568568,0.07180136,-0.0029467044,1.6080897,-0.0006440282,488.11038,5.9713345,0.46366152,0.4548928,0.17846888,0.12707515,inf,inf,inf,inf,1,1,1,1,2,0,2,1,3,1,1,1,0,0
29244000,29240000,904000,47.3977508,8.5456073,0.57352996,-0.0040128566,-5.8482366,-0.011087549,0.007383476,0.0,1.885577,-0.0041272454,0.100072205,0.017124997,0.00035731617,-0.00067297206,-0.0008520037,-0.63209116,0.06262673,0.003560446,1.6069182,-0.0006440282,488.11038,5.969367,0.4743776,0.45550302,0.1788332,0.128442,inf,inf,inf,inf,1,1,1,1,2,0,2,1,3,1,1,1,0,0
29740000,29736000,904000,47.3977508,8.5456073,1.4114559,-0.012221208,-5.838798,-0.011087549,0.007383476,0.0,1.3588592,0.014451956,0.09762812,0.016043458,0.00035731617,-0.00067297206,-0.0008520037,-1.4609495,0.021479353,-0.011918134,1.6067247,-0.0006440282,488.11038,5.9599285,0.48491728,0.45945027,0.17822118,0.13024087,inf,inf,inf,inf,1,1,1,1,2,0,2,1,3,1,1,1,0,0
30244000,30240000,904000,47.3977508,8.5456073,1.9083996,-0.0071892026,-5.8393545,-0.011087549,0.007383476,0.0,0.49243534,0.025500761,0.07887179,-0.0043898006,0.00035731617,-0.00067297206,-0.0008520037,-1.9808536,0.0050915694,-0.0046649943,1.6070211,-0.0006440282,488.11038,5.960485,0.4965018,0.46425503,0.18373477,0.13212861,inf,inf,inf,inf,1,1,1,1,2,0,2,1,3,1,1,1,0,0
30740000,30736000,904000,47.3977508,8.5456073,1.9409806,0.023198148,-5.838469,-0.011087549,0.007383476,0.0,-0.46707153,0.028219625,0.06268861,-0.012805,0.00035731617,-0.00067297206,-0.0008520037,-1.9129493,-0.06897803,-0.009775161,1.6072127,-0.0006440282,488.11038,5.9595995,0.4632572,0.45497388,0.17524545,0.12767774,inf,inf,inf,inf,1,1,1,1,2,0,2,1,3,1,1,1,0,0
31244000,31240000,904000,47.3977508,8.5456073,1.4964807,0.07067465,-5.836687,-0.011087549,0.007383476,0.0,-1.3268218,0.016358033,0.068503745,-0.0008233581,0.00035731617,-0.00067297206,-0.0008520037,-1.456386,-0.082164995,0.06492435,1.6062105,-0.0006440282,488.11038,5.9578176,0.4738394,0.45577094,0.18764535,0.1288145,inf,inf,inf,inf,1,1,1,1,2,0,2,1,3,1,1,1,0,0
31740000,31736000,904000,47.3977508,8.5456073,0.6851644,0.10960818,-5.8324027,-0.011087549,0.007383476,0.0,-1.8561512,-0.012278555,0.07676196,0.009404035,0.00035731617,-0.00067297206,-0.0008520037,-0.6317732,-0.12123358,0.042249445,1.606365,-0.0006440282,488.11038,5.953533,0.48453668,0.45983347,0.19429265,0.13035347,inf,inf,inf,inf,1,1,1,1,2,0,2,1,3,1,1,1,0,0
32244000,32240000,904000,47.3977508,8.5456073,-0.3096885,0.13805595,-5.828364,-0.011087549,0.007383476,0.0,-1.9264942,-0.044456195,0.07558815,0.0079053845,0.00035731617,-0.00067297206,-0.0008520037,0.41119304,-0.11841593,-0.0057546417,1.60678,-0.0006440282,488.11038,5.9494944,0.49691027,0.46077427,0.19433233,0.13166672,inf,inf,inf,inf,1,1,1,1,2,0,2,1,3,1,1,1,0,0
32740000,32736000,904000,47.3977508,8.5456073,-1.2191441,0.15022643,-5.8247356,-0.011087549,0.007383476,0.0,-1.5079738,-0.07342191,0.07381888,0.007371693,0.00035731617,-0.00067297206,-0.0008520037,1.3370727,-0.09163491,-0.0066403295,1.6079127,-0.0006440282,488.11038,5.945866,0.4632947,0.4555445,0.17117466,0.12797457,inf,inf,inf,inf,1,1,1,1,2,0,2,1,3,1,1,1,0,0
33244000,33240000,904000,47.3977508,8.5456073,-1.8474473,0.13808389,-5.821254,-0.011087549,0.007383476,0.0,-0.7109816,-0.09180297,0.050426897,-0.0123031065,0.00035731617,-0.00067297206,-0.0008520037,1.8861288,-0.040049545,-0.02692174,1.6090609,-0.0006440282,488.11038,5.9423842,0.47428784,0.4563867,0.1744738,0.12930542,inf,inf,inf,inf,1,1,1,1,2,0,2,1,3,1,1,1,0,0
33740000,33736000,904000,47.3977508,8.5456073,-2.020575,0.11240637,-5.8288183,-0.011087549,0.007383476,0.0,0.25012434,-0.08541992,0.036395192,-0.02373198,0.00035731617,-0.00067297206,-0.0008520037,2.0053556,0.028472625,0.007236376,1.6098471,-0.0006440282,488.11038,5.949949,0.48474875,0.4603242,0.185539,0.13076513,inf,inf,inf,inf,1,1,1,1,2,0,2,1,3,1,1,1,0,0
34244000,34240000,904000,47.3977508,8.5456073,-1.6970913,0.0930888,-5.831142,-0.011087549,0.007383476,0.0,1.1705291,-0.06935075,0.05446651,-0.00062115816,0.00035731617,-0.00067297206,-0.0008520037,1.6633359,-0.009949158,0.04618987,1.6092474,-0.0006440282,488.11038,5.9522724,0.4968568,0.4649606,0.20030302,0.13223457,inf,inf,inf,inf,1,1,1,1,2,0,2,1,3,1,1,1,0,0
34740000,34736000,904000,47.3977508,8.5456073,-0.9712767,0.07153128,-5.82372,-0.011087549,0.007383476,0.0,1.8025771,-0.057876665,0.07000993,0.018769436,0.00035731617,-0.00067297206,-0.0008520037,0.9020763,0.03390951,-7.916241e-05,1.608377,-0.0006440282,488.11038,5.9448504,0.4631635,0.4553163,0.184084,0.12752575,inf,inf,inf,inf,1,1,1,1,2,0,2,1,3,1,1,1,0,0
35244000,35240000,904000,47.3977508,8.5456073,0.007043221,0.042187948,-5.8099737,-0.011087549,0.007383476,0.0,2.0086293,-0.044076115,0.06431981,0.01586036,0.00035731617,-0.00067297206,-0.0008520037,-0.08859822,0.019355442,0.023501923,1.6075076,-0.0006440282,488.11038,5.931104,0.47441834,0.45973673,0.18542212,0.12921718,inf,inf,inf,inf,1,1,1,1,2,0,2,1,3,1,1,1,0,0
35740000,35736000,904000,47.3977508,8.5456073,0.9602111,0.032134414,-5.807789,-0.011087549,0.007383476,0.0,1.722582,-0.024797969,0.06531938,0.01177955,0.00035731617,-0.00067297206,-0.0008520037,-1.055336,-0.018157952,0.06179418,1.6075363,-0.0006440282,488.11038,5.9289193,0.48533097,0.46343613,0.18191518,0.13084938,inf,inf,inf,inf,1,1,1,1,2,0,2,1,3,1,1,1,0,0
36244000,36240000,904000,47.3977508,8.5456073,1.6774893,0.023108924,-5.7998486,-0.011087549,0.007383476,0.0,1.0089182,-0.01836938,0.057412684,0.006407094,0.00035731617,-0.00067297206,-0.0008520037,-1.741121,0.06399324,-0.004883855,1.6063952,-0.0006440282,488.11038,5.920979,0.49735266,0.46383545,0.1807901,0.13209029,inf,inf,inf,inf,1,1,1,1,2,0,2,1,3,1,1,1,0,0
36740000,36736000,904000,47.3977508,8.5456073,1.974655,0.020056197,-5.80123,-0.011087549,0.007383476,0.0,0.07591971,-0.008009187,0.032196365,-0.016819736,0.00035731617,-0.00067297206,-0.0008520037,-1.9514436,0.020629797,-0.049635764,1.606757,-0.0006440282,488.11038,5.9223604,0.463771,0.45428428,0.16803996,0.12761642,inf,inf,inf,inf,1,1,1,1,2,0,2,1,3,1,1,1,0,0
37244000,37240000,904000,47.3977508,8.5456073,1.7901524,0.028286776,-5.811978,-0.011087549,0.007383476,0.0,-0.8732302,-0.005730795,0.038406476,-0.012921498,0.00035731617,-0.00067297206,-0.0008520037,-1.7712449,0.013224474,0.07297005,1.6071563,-0.0006440282,488.11038,5.9331083,0.47441775,0.45876515,0.17944825,0.1292239,inf,inf,inf,inf,1,1,1,1,2,0,2,1,3,1,1,1,0,0
37740000,37736000,904000,47.3977508,8.5456073,1.1768739,0.04049899,-5.81898,-0.011087549,0.007383476,0.0,-1.6006391,-0.008376712,0.05817508,0.001957124,0.00035731617,-0.00067297206,-0.0008520037,-1.1603799,0.010597446,0.08373986,1.6066068,-0.0006440282,488.11038,5.9401107,0.4846793,0.4625483,0.18873768,0.13059662,inf,inf,inf,inf,1,1,1,1,2,0,2,1,3,1,1,1,0,0
38244000,38240000,904000,47.3977508,8.5456073,0.26277837,0.065600865,-5.8203173,-0.011087549,0.007383476,0.0,-1.9484202,-0.014364416,0.07383521,0.012589676,0.00035731617,-0.00067297206,-0.0008520037,-0.25690544,-0.08477271,0.041482966,1.6070229,-0.0006440282,488.11038,5.9414477,0.49668494,0.46310318,0.19215551,0.13173094,inf,inf,inf,inf,1,1,1,1,2,0,2,1,3,1,1,1,0,0
38740000,38736000,904000,47.3977508,8.5456073,-0.7000338,0.076897405,-5.822913,-0.011087549,0.007383476,0.0,-1.8088073,-0.032175638,0.068683565,0.0015928918,0.00035731617,-0.00067297206,-0.0008520037,0.764189,-0.0659894,-0.04351325,1.6077237,-0.0006440282,488.11038,5.9440436,0.46309695,0.45748496,0.16967542,0.12794465,inf,inf,inf,inf,1,1,1,1,2,0,2,1,3,1,1,1,0,0
39244000,39240000,904000,47.3977508,8.5456073,-1.5040237,0.07838548,-5.841965,-0.011087549,0.007383476,0.0,-1.2127606,-0.04517579,0.07453645,-0.008615715,0.00035731617,-0.00067297206,-0.0008520037,1.5322357,-0.001954133,0.0665849,1.6078719,-0.0006440282,488.11038,5.9630957,0.47395316,0.45793048,0.16901582,0.12928687,inf,inf,inf,inf,1,1,1,1,2,0,2,1,3,1,1,1,0,0
39740000,39736000,904000,47.3977508,8.5456073,-1.9311107,0.06995107,-5.8553905,-0.011087549,0.007383476,0.0,-0.3369091,-0.04733654,0.07446576,-0.015126185,0.00035731617,-0.00067297206,-0.0008520037,1.983086,0.0039234,0.044909302,1.6079589,-0.0006440282,488.11038,5.976521,0.48424068,0.46170652,0.17450781,0.13085543,inf,inf,inf,inf,1,1,1,1,2,0,2,1,3,1,1,1,0,0
40244000,40240000,904000,47.3977508,8.5456073,-1.8791368,0.0627121,-5.8694105,-0.011087549,0.007383476,0.0,0.63712287,-0.038961392,0.08627037,-0.007306572,0.00035731617,-0.00067297206,-0.0008520037,1.8821448,-0.04004291,0.09488686,1.6084594,-0.0006440282,488.11038,5.990541,0.49604353,0.46232754,0.1877149,0.13189979,inf,inf,inf,inf,1,1,1,1,2,0,2,1,3,1,1,1,0,0
40740000,40740000,904000,47.3977508,8.5456073,-1.3702888,0.05472319,-5.868607,-0.011087549,0.007383476,0.0,1.4461826,-0.036109153,0.10384504,0.012081529,0.00035731617,-0.00067297206,-0.0008520037,1.3767632,-0.011509808,0.020705162,1.608236,-0.0006440282,488.11038,5.9897375,0.46298912,0.45692658,0.17806837,0.12780473,inf,inf,inf,inf,1,1,1,1,2,0,2,1,3,1,1,1,0,0
41244000,41244000,904000,47.3977508,8.5456073,-0.5134072,0.04430326,-5.873173,-0.011087549,0.007383476,0.0,1.9140114,-0.031908613,0.11796965,0.015948834,0.00035731617,-0.00067297206,-0.0008520037,0.48234916,0.017437821,0.06979703,1.6080607,-0.0006440282,488.11038,5.9943037,0.47392723,0.45754692,0.18353471,0.12888043,inf,inf,inf,inf,1,1,1,1,2,0,2,1,3,1,1,1,0,0
41740000,41740000,904000,47.3977508,8.5456073,0.46421528,0.027479665,-5.871659,-0.011087549,0.007383476,0.0,1.9060338,-0.027133355,0.12391694,0.015894128,0.00035731617,-0.00067297206,-0.0008520037,-0.505368,0.07379081,0.06444286,1.6071757,-0.0006440282,488.11038,5.9927893,0.48469266,0.46136612,0.18228075,0.13048643,inf,inf,inf,inf,1,1,1,1,2,0,2,1,3,1,1,1,0,0
42244000,42244000,904000,47.3977508,8.5456073,1.3462142,0.007064246,-5.8605013,-0.011087549,0.007383476,0.0,1.4151937,-0.018055355,0.12630457,0.02164789,0.00035731617,-0.00067297206,-0.0008520037,-1.422672,0.038015813,-0.0029178334,1.6067492,-0.0006440282,488.11038,5.9816318,0.49665222,0.46186197,0.17906287,0.13178498,inf,inf,inf,inf,1,1,1,1,2,0,2,1,3,1,1,1,0,0
42740000,42740000,904000,47.3977508,8.5456073,1.9006913,0.00062583224,-5.855739,-0.011087549,0.007383476,0.0,0.5937712,-0.0016868585,0.10162312,-0.0015735822,0.00035731617,-0.00067297206,-0.0008520037,-1.9228029,0.029420929,-0.07172301,1.6071059,-0.0006440282,488.11038,5.9768696,0.46329424,0.45639977,0.16209537,0.12795258,inf,inf,inf,inf,1,1,1,1,2,0,2,1,3,1,1,1,0,0
43244000,43244000,904000,47.3977508,8.5456073,1.9969963,-0.00028354203,-5.8676453,-0.011087549,0.007383476,0.0,-0.3824518,0.005899153,0.089167245,-0.017679838,0.00035731617,-0.00067297206,-0.0008520037,-1.9188477,0.03367419,0.03400072,1.6071154,-0.0006440282,488.11038,5.9887757,0.4736991,0.45695838,0.16982992,0.12906423,inf,inf,inf,inf,1,1,1,1,2,0,2,1,3,1,1,1,0,0
43740000,43740000,904000,47.3977508,8.5456073,1.6152581,0.002969561,-5.8675313,-0.011087549,0.007383476,0.0,-1.2499878,0.0041285926,0.10351308,0.0025987397,0.00035731617,-0.00067297206,-0.0008520037,-1.5565466,-0.012513293,0.0097425645,1.6079698,-0.0006440282,488.11038,5.988662,0.48357671,0.46066505,0.1798815,0.1303911,inf,inf,inf,inf,1,1,1,1,2,0,2,1,3,1,1,1,0,0
44244000,44244000,904000,47.3977508,8.5456073,0.83544445,0.0059559373,-5.860477,-0.011087549,0.007383476,0.0,-1.8336631,0.0018907738,0.112078294,0.015015269,0.00035731617,-0.00067297206,-0.0008520037,-0.7340354,0.004871588,0.048923302,1.6082829,-0.0006440282,488.11038,5.9816074,0.49507442,0.46510276,0.18736988,0.13195148,inf,inf,inf,inf,1,1,1,1,2,0,2,1,3,1,1,1,0,0
44740000,44740000,904000,47.3977508,8.5456073,-0.128344,0.012103554,-5.8551836,-0.011087549,0.007383476,0.0,-1.9591957,-0.0030394217,0.1096848,0.011942267,0.00035731617,-0.00067297206,-0.0008520037,0.23207538,-0.021886064,-0.000996515,1.6084344,-0.0006440282,488.11038,5.976314,0.46223918,0.45535043,0.16895786,0.12752481,inf,inf,inf,inf,1,1,1,1,2,0,2,1,3,1,1,1,0,0
45244000,45244000,904000,47.3977508,8.5456073,-1.0696856,0.019526767,-5.8534045,-0.011087549,0.007383476,0.0,-1.6012064,-0.0072984383,0.10537506,0.006868138,0.00035731617,-0.00067297206,-0.0008520037,1.1802541,-0.0018739955,0.022996215,1.6078877,-0.0006440282,488.11038,5.974535,0.47287613,0.45965967,0.16836481,0.12942985,inf,inf,inf,inf,1,1,1,1,2,0,2,1,3,1,1,1,0,0
45740000,45740000,904000,47.3977508,8.5456073,-1.735234,0.031443756,-5.8520613,-0.011087549,0.007383476,0.0,-0.8631708,-0.0076430473,0.090504624,-0.0068074698,0.00035731617,-0.00067297206,-0.0008520037,1.8014115,-0.016106423,0.04513282,1.6074805,-0.0006440282,488.11038,5.9731917,0.4831283,0.4594327,0.17031458,0.13056792,inf,inf,inf,inf,1,1,1,1,2,0,2,1,3,1,1,1,0,0
46244000,46244000,904000,47.3977508,8.5456073,-1.9719814,0.044004112,-5.865079,-0.011087549,0.007383476,0.0,0.099162824,-0.014340419,0.07810344,-0.022647142,0.00035731617,-0.00067297206,-0.0008520037,1.9708279,-0.015669633,0.06373971,1.6073086,-0.0006440282,488.11038,5.9862094,0.49467078,0.46389943,0.1794543,0.13222112,inf,inf,inf,inf,1,1,1,1,2,0,2,1,3,1,1,1,0,0
46740000,46740000,904000,47.3977508,8.5456073,-1.7139312,0.051692072,-5.878953,-0.011087549,0.007383476,0.0,1.017124,-0.019779366,0.10078831,-0.0044675143,0.00035731617,-0.00067297206,-0.0008520037,1.7085899,-0.02757531,0.075157724,1.6075518,-0.0006440282,488.11038,6.0000834,0.46201077,0.45812094,0.17177454,0.1280204,inf,inf,inf,inf,1,1,1,1,2,0,2,1,3,1,1,1,0,0
47244000,47244000,904000,47.3977508,8.5456073,-1.0214013,0.0489138,-5.881328,-0.011087549,0.007383476,0.0,1.699285,-0.027719785,0.121672496,0.012816722,0.00035731617,-0.00067297206,-0.0008520037,0.9440005,-0.031691115,0.082671635,1.6073527,-0.0006440282,488.11038,6.0024586,0.47266355,0.45853218,0.18053415,0.1289914,inf,inf,inf,inf,1,1,1,1,2,0,2,1,3,1,1,1,0,0
47740000,47740000,904000,47.3977508,8.5456073,-0.08236901,0.03506156,-5.8674464,-0.011087549,0.007383476,0.0,1.9615239,-0.028435884,0.12504259,0.021295547,0.00035731617,-0.00067297206,-0.0008520037,0.038033932,0.03225042,-0.018136574,1.6073331,-0.0006440282,488.11038,5.988577,0.4832883,0.45833254,0.18311483,0.12994932,inf,inf,inf,inf,1,1,1,1,2,0,2,1,3,1,1,1,0,0
48244000,48244000,904000,47.3977508,8.5456073,0.903188,0.023073183,-5.8553977,-0.011087549,0.007383476,0.0,1.7356409,-0.020706292,0.11872213,0.01905272,0.00035731617,-0.00067297206,-0.0008520037,-0.9741157,0.004227622,0.028672626,1.6071022,-0.0006440282,488.11038,5.976528,0.49535206,0.46289164,0.18144314,0.13180608,inf,inf,inf,inf,1,1,1,1,2,0,2,1,3,1,1,1,0,0
48740000,48740000,904000,47.3977508,8.5456073,1.6592741,0.022444408,-5.848074,-0.011087549,0.007383476,0.0,1.0742966,-0.012712615,0.11029241,0.011772576,0.00035731617,-0.00067297206,-0.0008520037,-1.7318505,0.012618242,-0.0297809,1.6070822,-0.0006440282,488.11038,5.9692044,0.46239775,0.45727637,0.16192433,0.12801494,inf,inf,inf,inf,1,1,1,1,2,0,2,1,3,1,1,1,0,0
49244000,49244000,904000,47.3977508,8.5456073,2.0203235,0.02760158,-5.8449497,-0.011087549,0.007383476,0.0,0.14016305,-0.008065575,0.07356395,-0.020448618,0.00035731617,-0.00067297206,-0.0008520037,-1.9830527,-0.0011828814,-0.020030884,1.6073772,-0.0006440282,488.11038,5.96608,0.47296673,0.4576516,0.16589642,0.1291967,inf,inf,inf,inf,1,1,1,1,2,0,2,1,3,1,1,1,0,0
49740000,49740000,904000,47.3977508,8.5456073,1.884688,0.027930913,-5.854892,-0.011087549,0.007383476,0.0,-0.80950195,-0.009852156,0.083508246,-0.010780438,0.00035731617,-0.00067297206,-0.0008520037,-1.8493768,0.028296212,0.09489338,1.6076244,-0.0006440282,488.11038,5.9760222,0.4828656,0.46122783,0.1740993,0.13055588,inf,inf,inf,inf,1,1,1,1,2,0,2,1,3,1,1,1,0,0
50244000,50244000,904000,47.3977508,8.5456073,1.2982639,0.025413133,-5.860087,-0.011087549,0.007383476,0.0,-1.579648,-0.013182237,0.1032455,0.0062726447,0.00035731617,-0.00067297206,-0.0008520037,-1.2162864,-0.013237804,0.094016075,1.6079061,-0.0006440282,488.11038,5.9812174,0.49416125,0.46555737,0.18312345,0.13204728,inf,inf,inf,inf,1,1,1,1,2,0,2,1,3,1,1,1,0,0
50740000,50740000,904000,47.3977508,8.5456073,0.4206677,0.022318352,-5.8575525,-0.011087549,0.007383476,0.0,-1.9675136,-0.014302119,0.11364247,0.0146214925,0.00035731617,-0.00067297206,-0.0008520037,-0.34445366,-0.014696036,0.018249264,1.608737,-0.0006440282,488.11038,5.978683,0.46162137,0.45566958,0.16842785,0.12747455,inf,inf,inf,inf,1,1,1,1,2,0,2,1,3,1,1,1,0,0
51244000,51244000,904000,47.3977508,8.5456073,-0.5672704,0.01930673,-5.864347,-0.011087549,0.007383476,0.0,-1.8887974,-0.015705936,0.11290078,0.0035790473,0.00035731617,-0.00067297206,-0.0008520037,0.6366466,-0.012403615,0.033797693,1.6084083,-0.0006440282,488.11038,5.9854774,0.4721291,0.45976043,0.1695865,0.12927835,inf,inf,inf,inf,1,1,1,1,2,0,2,1,3,1,1,1,0,0
51740000,51740000,904000,47.3977508,8.5456073,-1.402103,0.019962963,-5.8620467,-0.011087549,0.007383476,0.0,-1.3468257,-0.009758526,0.1140742,0.0056514004,0.00035731617,-0.00067297206,-0.0008520037,1.4934096,-0.03255406,0.039095987,1.607842,-0.0006440282,488.11038,5.983177,0.4823916,0.4632083,0.16989565,0.13094538,inf,inf,inf,inf,1,1,1,1,2,0,2,1,3,1,1,1,0,0
52244000,52244000,904000,47.3977508,8.5456073,-1.9004043,0.0234899,-5.8614182,-0.011087549,0.007383476,0.0,-0.47443262,-0.009927241,0.09331658,-0.011233948,0.00035731617,-0.00067297206,-0.0008520037,1.9771336,-0.011353476,-0.0001033768,1.6078613,-0.0006440282,488.11038,5.9825487,0.4938113,0.46333185,0.17471716,0.13207991,inf,inf,inf,inf,1,1,1,1,2,0,2,1,3,1,1,1,0,0
52740000,52740000,904000,47.3977508,8.5456073,-1.9184769,0.023879318,-5.863394,-0.011087549,0.007383476,0.0,0.4948145,-0.012679401,0.08183756,-0.015227605,0.00035731617,-0.00067297206,-0.0008520037,1.941728,-0.030816661,0.0052284445,1.6075325,-0.0006440282,488.11038,5.9845243,0.4614741,0.45739356,0.16627905,0.12795666,inf,inf,inf,inf,1,1,1,1,2,0,2,1,3,1,1,1,0,0
53244000,53244000,904000,47.3977508,8.5456073,-1.4604871,0.01978588,-5.8707204,-0.011087549,0.007383476,0.0,1.347074,-0.015900021,0.09756959,-0.0019164914,0.00035731617,-0.00067297206,-0.0008520037,1.4461282,0.009360708,0.10584946,1.6074699,-0.0006440282,488.11038,5.991851,0.4720596,0.46142942,0.17641927,0.12939793,inf,inf,inf,inf,1,1,1,1,2,0,2,1,3,1,1,1,0,0
53740000,53740000,904000,47.3977508,8.5456073,-0.6486973,0.011167535,-5.866936,-0.011087549,0.007383476,0.0,1.8605984,-0.012370896,0.11501997,0.015883477,0.00035731617,-0.00067297206,-0.0008520037,0.60270995,0.007608614,0.04749931,1.6075497,-0.0006440282,488.11038,5.9880667,0.4825768,0.4607544,0.182469,0.13016707,inf,inf,inf,inf,1,1,1,1,2,0,2,1,3,1,1,1,0,0
54244000,54244000,904000,47.3977508,8.5456073,0.33464527,0.008459335,-5.8546357,-0.011087549,0.007383476,0.0,1.9152398,-0.00421822,0.11516911,0.02023091,0.00035731617,-0.00067297206,-0.0008520037,-0.4235336,-0.0016518896,0.019187106,1.6072719,-0.0006440282,488.11038,5.975766,0.49467534,0.46485516,0.18373162,0.13185543,inf,inf,inf,inf,1,1,1,1,2,0,2,1,3,1,1,1,0,0
54740000,54740000,904000,47.3977508,8.5456073,1.2251388,0.0023813834,-5.8445086,-0.011087549,0.007383476,0.0,1.492891,-0.0019358328,0.10684135,0.014662599,0.00035731617,-0.00067297206,-0.0008520037,-1.2538568,0.0101947365,-0.0149076795,1.6071458,-0.0006440282,488.11038,5.965639,0.4618109,0.45879322,0.16375102,0.12801,inf,inf,inf,inf,1,1,1,1,2,0,2,1,3,1,1,1,0,0
55244000,55244000,904000,47.3977508,8.5456073,1.8479971,-0.004965522,-5.848503,-0.011087549,0.007383476,0.0,0.70286983,0.002431944,0.09271604,-0.0060840156,0.00035731617,-0.00067297206,-0.0008520037,-1.889461,0.031948466,0.010742805,1.6074871,-0.0006440282,488.11038,5.9696336,0.47254676,0.4588177,0.1649832,0.12925068,inf,inf,inf,inf,1,1,1,1,2,0,2,1,3,1,1,1,0,0
55740000,55740000,904000,47.3977508,8.5456073,2.0062268,0.0010013506,-5.854506,-0.011087549,0.007383476,0.0,-0.26036325,0.005455404,0.07548253,-0.021567091,0.00035731617,-0.00067297206,-0.0008520037,-1.9869332,0.0023654865,0.061430033,1.6078334,-0.0006440282,488.11038,5.9756365,0.48258135,0.4621381,0.1703564,0.13067976,inf,inf,inf,inf,1,1,1,1,2,0,2,1,3,1,1,1,0,0
56244000,56244000,904000,47.3977508,8.5456073,1.6821418,0.0054584807,-5.847697,-0.011087549,0.007383476,0.0,-1.1688148,0.0035500962,0.085974656,0.002151917,0.00035731617,-0.00067297206,-0.0008520037,-1.6192739,-0.04914928,0.014294869,1.6079056,-0.0006440282,488.11038,5.9688272,0.49381462,0.46625826,0.17901789,0.13215701,inf,inf,inf,inf,1,1,1,1,2,0,2,1,3,1,1,1,0,0
56740000,56740000,904000,47.3977508,8.5456073,0.9641873,0.011300025,-5.834637,-0.011087549,0.007383476,0.0,-1.792905,0.00088780484,0.08673121,0.013218127,0.00035731617,-0.00067297206,-0.0008520037,-0.9086068,-0.009989773,0.0052833925,1.6084422,-0.0006440282,488.11038,5.9557676,0.46154922,0.4562093,0.16729747,0.12749195,inf,inf,inf,inf,1,1,1,1,2,0,2,1,3,1,1,1,0,0
57244000,57244000,904000,47.3977508,8.5456073,0.0035666742,0.01815885,-5.8119426,-0.011087549,0.007383476,0.0,-1.9916598,-0.0037568375,0.0712997,0.012139534,0.00035731617,-0.00067297206,-0.0008520037,0.1192211,-0.02904629,-0.017025506,1.60854,-0.0006440282,488.11038,5.933073,0.47194034,0.46029657,0.17073633,0.12922947,inf,inf,inf,inf,1,1,1,1,2,0,2,1,3,1,1,1,0,0
57740000,57740000,904000,47.3977508,8.5456073,-0.9465668,0.025658967,-5.8083797,-0.011087549,0.007383476,0.0,-1.707043,-0.004168874,0.05784366,-0.0012471353,0.00035731617,-0.00067297206,-0.0008520037,1.0946388,-0.009016963,0.036159527,1.6080738,-0.0006440282,488.11038,5.92951,0.4821728,0.45991302,0.17142862,0.13042685,inf,inf,inf,inf,1,1,1,1,2,0,2,1,3,1,1,1,0,0
58244000,58244000,904000,47.3977508,8.5456073,-1.6665826,0.034075283,-5.818271,-0.011087549,0.007383476,0.0,-0.98614293,-0.010832363,0.0591952,-0.007932939,0.00035731617,-0.00067297206,-0.0008520037,1.7789208,-0.049070556,0.035658475,1.6077425,-0.0006440282,488.11038,5.9394016,0.49376088,0.46438766,0.17366038,0.13233793,inf,inf,inf,inf,1,1,1,1,2,0,2,1,3,1,1,1,0,0
58740000,58740000,904000,47.3977508,8.5456073,-1.9687741,0.032051418,-5.8296556,-0.011087549,0.007383476,0.0,-0.046476364,-0.015002874,0.0471332,-0.023469524,0.00035731617,-0.00067297206,-0.0008520037,2.0017073,-0.0028534995,0.009533948,1.6078045,-0.0006440282,488.11038,5.950786,0.46133304,0.4586258,0.16267243,0.12834364,inf,inf,inf,inf,1,1,1,1,2,0,2,1,3,1,1,1,0,0
59244000,59244000,904000,47.3977508,8.5456073,-1.8040754,0.021313755,-5.8406,-0.011087549,0.007383476,0.0,0.90661323,-0.016205728,0.058456995,-0.012810411,0.00035731617,-0.00067297206,-0.0008520037,1.8008676,0.0122326445,0.0527231,1.6073506,-0.0006440282,488.11038,5.9617305,0.4718827,0.45893747,0.17231391,0.12935072,inf,inf,inf,inf,1,1,1,1,2,0,2,1,3,1,1,1,0,0
59740000,59740000,904000,47.3977508,8.5456073,-1.196829,0.007508925,-5.833345,-0.011087549,0.007383476,0.0,1.6436639,-0.0069140275,0.07653107,0.012183102,0.00035731617,-0.00067297206,-0.0008520037,1.150444,0.006879432,0.031918284,1.6071557,-0.0006440282,488.11038,5.9544754,0.48227438,0.46246666,0.18069509,0.13062394,inf,inf,inf,inf,1,1,1,1,2,0,2,1,3,1,1,1,0,0
60244000,60244000,904000,47.3977508,8.5456073,-0.27828917,-0.0019255868,-5.829144,-0.011087549,0.007383476,0.0,1.9874249,0.00089554215,0.08292875,0.015969194,0.00035731617,-0.00067297206,-0.0008520037,0.21171016,0.0068238727,0.031962056,1.6067659,-0.0006440282,488.11038,5.9502745,0.49432167,0.4626674,0.18521652,0.13161445,inf,inf,inf,inf,1,1,1,1,2,0,2,1,3,1,1,1,0,0
60740000,60740000,904000,47.3977508,8.5456073,0.68268806,-0.0057282485,-5.830352,-0.011087549,0.007383476,0.0,1.840541,0.008458743,0.08467835,0.01057072,0.00035731617,-0.00067297206,-0.0008520037,-0.74632627,0.0071704704,0.011796131,1.6068507,-0.0006440282,488.11038,5.9514823,0.461668,0.4568106,0.16620123,0.12773164,inf,inf,inf,inf,1,1,1,1,2,0,2,1,3,1,1,1,0,0
61244000,61244000,904000,47.3977508,8.5456073,1.480857,-0.014364855,-5.83228,-0.011087549,0.007383476,0.0,1.2389516,0.013576445,0.08809411,0.00808931,0.00035731617,-0.00067297206,-0.0008520037,-1.542,0.017671816,0.032304782,1.6064311,-0.0006440282,488.11038,5.9534106,0.47249255,0.46089882,0.16626418,0.12952484,inf,inf,inf,inf,1,1,1,1,2,0,2,1,3,1,1,1,0,0
61740000,61740000,904000,47.3977508,8.5456073,1.8965544,-0.016134657,-5.8315024,-0.011087549,0.007383476,0.0,0.3521766,0.016292868,0.06801395,-0.010148095,0.00035731617,-0.00067297206,-0.0008520037,-1.9506752,0.012414034,-0.026642343,1.6070335,-0.0006440282,488.11038,5.952633,0.482671,0.46036664,0.16879448,0.13049597,inf,inf,inf,inf,1,1,1,1,2,0,2,1,3,1,1,1,0,0
62244000,62244000,904000,47.3977508,8.5456073,1.8408115,-0.013622374,-5.831509,-0.011087549,0.007383476,0.0,-0.6142426,0.018356409,0.05876269,-0.011157662,0.00035731617,-0.00067297206,-0.0008520037,-1.8456311,-0.013996628,0.009851529,1.6077565,-0.0006440282,488.11038,5.9526396,0.49392903,0.46471784,0.17547669,0.13207255,inf,inf,inf,inf,1,1,1,1,2,0,2,1,3,1,1,1,0,0
62740000,62740000,904000,47.3977508,8.5456073,1.3312106,-0.0065127886,-5.8265543,-0.011087549,0.007383476,0.0,-1.4129515,0.014117399,0.06685543,0.004094669,0.00035731617,-0.00067297206,-0.0008520037,-1.2976023,0.010411094,0.00782404,1.6079291,-0.0006440282,488.11038,5.947685,0.46164522,0.45504674,0.16494304,0.12744908,inf,inf,inf,inf,1,1,1,1,2,0,2,1,3,1,1,1,0,0
63244000,63244000,904000,47.3977508,8.5456073,0.46924114,0.00731542,-5.8264356,-0.011087549,0.007383476,0.0,-1.8718257,0.012287847,0.07569139,0.010009872,0.00035731617,-0.00067297206,-0.0008520037,-0.43784848,-0.0055597774,0.04711188,1.6081079,-0.0006440282,488.11038,5.947566,0.4719321,0.4593623,0.17024651,0.1291366,inf,inf,inf,inf,1,1,1,1,2,0,2,1,3,1,1,1,0,0
63740000,63740000,904000,47.3977508,8.5456073,-0.502921,0.017946908,-5.8199906,-0.011087549,0.007383476,0.0,-1.8584226,0.0046550184,0.07083186,0.006793037,0.00035731617,-0.00067297206,-0.0008520037,0.5325022,-0.04417954,-0.011560506,1.6083492,-0.0006440282,488.11038,5.941121,0.48205802,0.45911545,0.17238894,0.13028665,inf,inf,inf,inf,1,1,1,1,2,0,2,1,3,1,1,1,0,0
64244000,64244000,904000,47.3977508,8.5456073,-1.3696136,0.03135694,-5.8175683,-0.011087549,0.007383476,0.0,-1.3660412,0.0026559404,0.06802336,0.004006166,0.00035731617,-0.00067297206,-0.0008520037,1.3897058,0.015066063,-0.024456529,1.6074219,-0.0006440282,488.11038,5.938699,0.4936255,0.46361116,0.17401162,0.13221727,inf,inf,inf,inf,1,1,1,1,2,0,2,1,3,1,1,1,0,0
64740000,64740000,904000,47.3977508,8.5456073,-1.9050906,0.041641463,-5.8191714,-0.011087549,0.007383476,0.0,-0.5447985,-0.0033632542,0.055712156,-0.00783791,0.00035731617,-0.00067297206,-0.0008520037,1.9339237,-0.038542505,-0.025911255,1.607479,-0.0006440282,488.11038,5.940302,0.4613341,0.45801234,0.1608303,0.1283555,inf,inf,inf,inf,1,1,1,1,2,0,2,1,3,1,1,1,0,0
65244000,65244000,904000,47.3977508,8.5456073,-1.9873153,0.042818654,-5.820786,-0.011087549,0.007383476,0.0,0.43122503,-0.0056161946,0.034126814,-0.022052033,0.00035731617,-0.00067297206,-0.0008520037,1.9151502,0.017374171,0.04178192,1.607284,-0.0006440282,488.11038,5.9419165,0.4718734,0.45847946,0.16868518,0.12945344,inf,inf,inf,inf,1,1,1,1,2,0,2,1,3,1,1,1,0,0
65740000,65740000,904000,47.3977508,8.5456073,-1.5968031,0.035369154,-5.8222976,-0.011087549,0.007383476,0.0,1.2932281,-0.010184708,0.047729585,-0.0032134717,0.00035731617,-0.00067297206,-0.0008520037,1.543966,-0.0050710947,0.042171214,1.6068456,-0.0006440282,488.11038,5.943428,0.48217046,0.46216682,0.17738491,0.13074808,inf,inf,inf,inf,1,1,1,1,2,0,2,1,3,1,1,1,0,0
66244000,66244000,904000,47.3977508,8.5456073,-0.809926,0.016391672,-5.815903,-0.011087549,0.007383476,0.0,1.8689115,-0.007390094,0.060144305,0.013335563,0.00035731617,-0.00067297206,-0.0008520037,0.7656692,0.015541677,0.048613172,1.6068692,-0.0006440282,488.11038,5.9370337,0.49408472,0.46276563,0.18422414,0.13173631,inf,inf,inf,inf,1,1,1,1,2,0,2,1,3,1,1,1,0,0
66740000,66740000,904000,47.3977508,8.5456073,0.15814276,-0.0013702855,-5.798393,-0.011087549,0.007383476,0.0,1.9894466,0.0013185091,0.055029836,0.017641606,0.00035731617,-0.00067297206,-0.0008520037,-0.24961504,0.060434595,-0.02268329,1.6064341,-0.0006440282,488.11038,5.9195232,0.4615247,0.4572816,0.1673707,0.12784946,inf,inf,inf,inf,1,1,1,1,2,0,2,1,3,1,1,1,0,0
67244000,67244000,904000,47.3977508,8.5456073,1.0893761,-0.010740096,-5.772287,-0.011087549,0.007383476,0.0,1.6181471,0.014814409,0.044826005,0.023521936,0.00035731617,-0.00067297206,-0.0008520037,-1.1962479,0.036607478,-0.06570387,1.6062516,-0.0006440282,488.11038,5.8934174,0.4723611,0.4578284,0.16799305,0.12919809,inf,inf,inf,inf,1,1,1,1,2,0,2,1,3,1,1,1,0,0
67740000,67740000,904000,47.3977508,8.5456073,1.7319286,-0.013864993,-5.749796,-0.011087549,0.007383476,0.0,0.870943,0.027559612,0.007261969,0.0008443708,0.00035731617,-0.00067297206,-0.0008520037,-1.8359015,0.03964125,-0.121893354,1.6064374,-0.0006440282,488.11038,5.8709264,0.48266006,0.4616808,0.16922428,0.1308759,inf,inf,inf,inf,1,1,1,1,2,0,2,1,3,1,1,1,0,0
68244000,68244000,904000,47.3977508,8.5456073,1.9581023,-0.012864759,-5.745797,-0.011087549,0.007383476,0.0,-0.0893981,0.028779464,-0.030227987,-0.027585475,0.00035731617,-0.00067297206,-0.0008520037,-1.9578637,-0.008458271,-0.04705507,1.6067417,-0.0006440282,488.11038,5.8669276,0.49402663,0.46220797,0.17407885,0.13199577,inf,inf,inf,inf,1,1,1,1,2,0,2,1,3,1,1,1,0,0
68740000,68740000,904000,47.3977508,8.5456073,1.71207,-0.014907169,-5.745796,-0.011087549,0.007383476,0.0,-1.0066243,0.024465166,-0.023713319,-0.012198254,0.00035731617,-0.00067297206,-0.0008520037,-1.7288752,0.027604094,0.009483657,1.6073152,-0.0006440282,488.11038,5.8669267,0.4617014,0.4565605,0.16348681,0.12786965,inf,inf,inf,inf,1,1,1,1,2,0,2,1,3,1,1,1,0,0
69244000,69244000,904000,47.3977508,8.5456073,1.0314528,-0.017079744,-5.738105,-0.011087549,0.007383476,0.0,-1.699532,0.023599578,-0.01953684,-0.0007970737,0.00035731617,-0.00067297206,-0.0008520037,-0.9622813,-0.0033898102,-0.008285976,1.6078988,-0.0006440282,488.11038,5.8592353,0.4719706,0.45696712,0.17010053,0.12887965,inf,inf,inf,inf,1,1,1,1,2,0,2,1,3,1,1,1,0,0
69740000,69740000,904000,47.3977508,8.5456073,0.108290166,-0.010465733,-5.7440906,-0.011087549,0.007383476,0.0,-1.9610307,0.024204224,-0.008710837,0.0015345673,0.00035731617,-0.00067297206,-0.0008520037,-0.027955974,0.0024709587,0.009170732,1.6079818,-0.0006440282,488.11038,5.865221,0.48203862,0.46060893,0.17379087,0.13038702,inf,inf,inf,inf,1,1,1,1,2,0,2,1,3,1,1,1,0,0
70244000,70244000,904000,47.3977508,8.5456073,-0.8472848,0.0021109714,-5.7428703,-0.011087549,0.007383476,0.0,-1.7340373,0.017861716,-0.0048783263,0.004262678,0.00035731617,-0.00067297206,-0.0008520037,0.964487,-0.036392037,-0.006203539,1.6077411,-0.0006440282,488.11038,5.864001,0.4935969,0.465069,0.17562248,0.1322472,inf,inf,inf,inf,1,1,1,1,2,0,2,1,3,1,1,1,0,0
70740000,70740000,904000,47.3977508,8.5456073,-1.5873069,0.017185215,-5.737631,-0.011087549,0.007383476,0.0,-1.088269,0.010147091,-0.017285282,-0.0052879523,0.00035731617,-0.00067297206,-0.0008520037,1.6463232,-0.014608041,-0.114950344,1.6072147,-0.0006440282,488.11038,5.8587613,0.46130642,0.45550805,0.16052979,0.12792952,inf,inf,inf,inf,1,1,1,1,2,0,2,1,3,1,1,1,0,0
71244000,71244000,904000,47.3977508,8.5456073,-1.9497212,0.02073318,-5.747234,-0.011087549,0.007383476,0.0,-0.16756259,-0.0019512195,-0.027689215,-0.017896673,0.00035731617,-0.00067297206,-0.0008520037,1.991355,-0.019297061,-0.039095055,1.6072065,-0.0006440282,488.11038,5.8683643,0.47184765,0.45992213,0.16594578,0.12967661,inf,inf,inf,inf,1,1,1,1,2,0,2,1,3,1,1,1,0,0
71740000,71740000,904000,47.3977508,8.5456073,-1.830199,0.021160204,-5.748005,-0.011087549,0.007383476,0.0,0.7801993,-0.006593771,-0.029438153,-0.011447025,0.00035731617,-0.00067297206,-0.0008520037,1.8034191,-0.03516463,-0.009986571,1.6068267,-0.0006440282,488.11038,5.8691354,0.48205653,0.45970473,0.17386153,0.13052282,inf,inf,inf,inf,1,1,1,1,2,0,2,1,3,1,1,1,0,0
72244000,72244000,904000,47.3977508,8.5456073,-1.2620785,0.022598788,-5.7469654,-0.011087549,0.007383476,0.0,1.5508868,-0.008552946,-0.018056612,0.0021947045,0.00035731617,-0.00067297206,-0.0008520037,1.2093546,-0.0018876161,0.03609899,1.6067576,-0.0006440282,488.11038,5.868096,0.49382082,0.46422058,0.18215112,0.13201326,inf,inf,inf,inf,1,1,1,1,2,0,2,1,3,1,1,1,0,0
72740000,72740000,904000,47.3977508,8.5456073,-0.39671195,0.015779618,-5.737302,-0.011087549,0.007383476,0.0,1.9452705,-0.0115223285,-0.011398136,0.012382456,0.00035731617,-0.00067297206,-0.0008520037,0.33254758,0.040308293,-0.0033518297,1.606687,-0.0006440282,488.11038,5.8584323,0.46138468,0.45457357,0.16783504,0.12743303,inf,inf,inf,inf,1,1,1,1,2,0,2,1,3,1,1,1,0,0
73244000,73244000,904000,47.3977508,8.5456073,0.57641846,0.010146801,-5.731743,-0.011087549,0.007383476,0.0,1.8653522,-0.00795283,-0.015607939,0.0066151144,0.00035731617,-0.00067297206,-0.0008520037,-0.63491946,-0.008220289,-0.010894611,1.6062247,-0.0006440282,488.11038,5.8528733,0.47217718,0.45891866,0.16984521,0.12922966,inf,inf,inf,inf,1,1,1,1,2,0,2,1,3,1,1,1,0,0
73740000,73740000,904000,47.3977508,8.5456073,1.4010675,0.009016154,-5.7357745,-0.011087549,0.007383476,0.0,1.3287141,-0.0025680081,-0.011388636,0.0030969048,0.00035731617,-0.00067297206,-0.0008520037,-1.4846944,-0.004442714,-0.016513279,1.6066854,-0.0006440282,488.11038,5.856905,0.48256084,0.4626799,0.17040193,0.13093036,inf,inf,inf,inf,1,1,1,1,2,0,2,1,3,1,1,1,0,0
74244000,74244000,904000,47.3977508,8.5456073,1.8985565,0.011661676,-5.7383876,-0.011087549,0.007383476,0.0,0.45701158,-0.002666769,-0.025382686,-0.012496293,0.00035731617,-0.00067297206,-0.0008520037,-1.9738235,-0.016055869,-0.04944205,1.6068357,-0.0006440282,488.11038,5.859518,0.4940475,0.46316972,0.17316476,0.13215144,inf,inf,inf,inf,1,1,1,1,2,0,2,1,3,1,1,1,0,0
74740000,74740000,904000,47.3977508,8.5456073,1.9259597,0.016203115,-5.750265,-0.011087549,0.007383476,0.0,-0.5146875,-0.002806008,-0.030888023,-0.020675927,0.00035731617,-0.00067297206,-0.0008520037,-1.9049772,-0.020115985,0.030712223,1.6070354,-0.0006440282,488.11038,5.8713956,0.46169806,0.45745808,0.16156632,0.12808514,inf,inf,inf,inf,1,1,1,1,2,0,2,1,3,1,1,1,0,0
75240000,75236000,904000,47.3977508,8.5456073,1.4976883,0.017294155,-5.7634697,-0.011087549,0.007383476,0.0,-1.3610471,-0.0055847066,-0.004997065,-0.0020818068,0.00035731617,-0.00067297206,-0.0008520037,-1.498626,0.0022752208,0.05788449,1.6076783,-0.0006440282,488.11038,5.8846,0.47116402,0.46099913,0.16802439,0.1294184,inf,inf,inf,inf,1,1,1,1,2,0,2,1,3,1,1,1,0,0
75744000,75740000,904000,47.3977508,8.5456073,0.692352,0.022502055,-5.761531,-0.011087549,0.007383476,0.0,-1.8966795,-0.0066354647,0.012458198,0.014528639,0.00035731617,-0.00067297206,-0.0008520037,-0.69353175,0.014211006,0.006580725,1.6077204,-0.0006440282,488.11038,5.8826613,0.48197562,0.4612586,0.17371032,0.13043809,inf,inf,inf,inf,1,1,1,1,2,0,2,1,3,1,1,1,0,0
76240000,76236000,904000,47.3977508,8.5456073,-0.27823457,0.031120501,-5.754308,-0.011087549,0.007383476,0.0,-1.9690889,-0.008286946,0.005240217,0.008725624,0.00035731617,-0.00067297206,-0.0008520037,0.34818196,-0.037899777,-0.05317479,1.6076952,-0.0006440282,488.11038,5.8754387,0.4925702,0.46487096,0.17658347,0.13200536,inf,inf,inf,inf,1,1,1,1,2,0,2,1,3,1,1,1,0,0
76744000,76740000,904000,47.3977508,8.5456073,-1.1906239,0.032935187,-5.7512507,-0.011087549,0.007383476,0.0,-1.5406947,-0.016995667,0.003036546,0.006785075,0.00035731617,-0.00067297206,-0.0008520037,1.3187441,-0.013599142,0.007442198,1.6075135,-0.0006440282,488.11038,5.872381,0.46134278,0.45585084,0.16124226,0.12786491,inf,inf,inf,inf,1,1,1,1,2,0,2,1,3,1,1,1,0,0
77240000,77236000,904000,47.3977508,8.5456073,-1.7828839,0.033537693,-5.747906,-0.011087549,0.007383476,0.0,-0.74202275,-0.019480292,-0.014901436,-0.008201386,0.00035731617,-0.00067297206,-0.0008520037,1.8665661,0.024009014,-0.07721781,1.6070598,-0.0006440282,488.11038,5.8690367,0.4711626,0.4594809,0.16460231,0.1295218,inf,inf,inf,inf,1,1,1,1,2,0,2,1,3,1,1,1,0,0
77744000,77740000,904000,47.3977508,8.5456073,-1.923431,0.03070124,-5.756433,-0.011087549,0.007383476,0.0,0.23165403,-0.021023706,-0.026159467,-0.01918877,0.00035731617,-0.00067297206,-0.0008520037,1.9393692,-0.0126065565,0.045958903,1.606805,-0.0006440282,488.11038,5.8775635,0.48227298,0.46014884,0.17137642,0.1307114,inf,inf,inf,inf,1,1,1,1,2,0,2,1,3,1,1,1,0,0
78240000,78236000,904000,47.3977508,8.5456073,-1.6014137,0.021275098,-5.7714324,-0.011087549,0.007383476,0.0,1.11817,-0.023642669,-0.0055557517,-0.0066280738,0.00035731617,-0.00067297206,-0.0008520037,1.5985821,-0.002462926,0.043588687,1.6068807,-0.0006440282,488.11038,5.892563,0.49300045,0.46415013,0.17929621,0.13210747,inf,inf,inf,inf,1,1,1,1,2,0,2,1,3,1,1,1,0,0
78744000,78740000,904000,47.3977508,8.5456073,-0.87754893,0.004497774,-5.7723255,-0.011087549,0.007383476,0.0,1.7498497,-0.016898734,0.017395318,0.013556062,0.00035731617,-0.00067297206,-0.0008520037,0.836071,0.0085907085,0.010692514,1.6067828,-0.0006440282,488.11038,5.893456,0.46156222,0.45539942,0.1673946,0.1276728,inf,inf,inf,inf,1,1,1,1,2,0,2,1,3,1,1,1,0,0
79240000,79236000,904000,47.3977508,8.5456073,0.05631256,-0.0077817994,-5.7676415,-0.011087549,0.007383476,0.0,1.9485788,-0.0073129595,0.017605934,0.010647116,0.00035731617,-0.00067297206,-0.0008520037,-0.111437745,0.022534003,0.0010719522,1.6063005,-0.0006440282,488.11038,5.888772,0.47154656,0.45907027,0.17081752,0.12920699,inf,inf,inf,inf,1,1,1,1,2,0,2,1,3,1,1,1,0,0
79744000,79740000,904000,47.3977508,8.5456073,0.9916233,-0.017470349,-5.769309,-0.011087549,0.007383476,0.0,1.6628395,0.0029190378,0.022998517,0.010223542,0.00035731617,-0.00067297206,-0.0008520037,-1.0214713,0.04101838,0.020040197,1.606201,-0.0006440282,488.11038,5.8904395,0.4827791,0.45971563,0.172208,0.13054843,inf,inf,inf,inf,1,1,1,1,2,0,2,1,3,1,1,1,0,0
80240000,80236000,904000,47.3977508,8.5456073,1.6704566,-0.019866234,-5.770079,-0.011087549,0.007383476,0.0,0.9712401,0.013339592,0.017944083,0.0016610923,0.00035731617,-0.00067297206,-0.0008520037,-1.6855624,0.034385037,0.007118098,1.6067486,-0.0006440282,488.11038,5.8912096,0.49344376,0.46376273,0.17342493,0.13225266,inf,inf,inf,inf,1,1,1,1,2,0,2,1,3,1,1,1,0,0
80744000,80744000,904000,47.3977508,8.5456073,1.9536961,-0.017288806,-5.783505,-0.011087549,0.007383476,0.0,0.028681977,0.016236508,0.0075805676,-0.01667776,0.00035731617,-0.00067297206,-0.0008520037,-1.9578869,0.021458136,-0.0066310163,1.6069863,-0.0006440282,488.11038,5.9046354,0.46193478,0.45514512,0.16055244,0.12794726,inf,inf,inf,inf,1,1,1,1,2,0,2,1,3,1,1,1,0,0
81240000,81240000,904000,47.3977508,8.5456073,1.7749902,-0.01162999,-5.7898955,-0.011087549,0.007383476,0.0,-0.89314336,0.013133236,0.018858258,-0.0041415663,0.00035731617,-0.00067297206,-0.0008520037,-1.7452337,-0.018670542,0.03143586,1.60741,-0.0006440282,488.11038,5.911026,0.4715763,0.4589954,0.16628803,0.1293322,inf,inf,inf,inf,1,1,1,1,2,0,2,1,3,1,1,1,0,0
81744000,81744000,904000,47.3977508,8.5456073,1.1480107,-0.008119304,-5.791933,-0.011087549,0.007383476,0.0,-1.6263374,0.0061525563,0.031020345,0.0053825825,0.00035731617,-0.00067297206,-0.0008520037,-1.0684245,-0.019369472,0.06499606,1.607785,-0.0006440282,488.11038,5.9130635,0.48238903,0.45952868,0.1727123,0.13031264,inf,inf,inf,inf,1,1,1,1,2,0,2,1,3,1,1,1,0,0
82240000,82240000,904000,47.3977508,8.5456073,0.24819463,-0.0009977992,-5.789839,-0.011087549,0.007383476,0.0,-1.9523236,0.0029645022,0.045135528,0.016726118,0.00035731617,-0.00067297206,-0.0008520037,-0.16479985,-0.022169726,0.04395097,1.6080056,-0.0006440282,488.11038,5.9109693,0.4929,0.46340382,0.17689452,0.13182203,inf,inf,inf,inf,1,1,1,1,2,0,2,1,3,1,1,1,0,0
82744000,82744000,904000,47.3977508,8.5456073,-0.733306,0.010028414,-5.787532,-0.011087549,0.007383476,0.0,-1.7958448,-0.00045907346,0.041551366,0.010274954,0.00035731617,-0.00067297206,-0.0008520037,0.80397046,-0.03403556,-0.013765878,1.6077485,-0.0006440282,488.11038,5.9086623,0.4614815,0.45490205,0.16197234,0.12775998,inf,inf,inf,inf,1,1,1,1,2,0,2,1,3,1,1,1,0,0
83240000,83240000,904000,47.3977508,8.5456073,-1.5292512,0.019775836,-5.7969227,-0.011087549,0.007383476,0.0,-1.1897537,-0.006141854,0.03564217,-0.00647663,0.00035731617,-0.00067297206,-0.0008520037,1.5334343,-0.02377988,0.014325603,1.6072242,-0.0006440282,488.11038,5.918053,0.47125375,0.45892486,0.16444194,0.12955852,inf,inf,inf,inf,1,1,1,1,2,0,2,1,3,1,1,1,0,0
83744000,83744000,904000,47.3977508,8.5456073,-1.96147,0.025412157,-5.805145,-0.011087549,0.007383476,0.0,-0.28835782,-0.0076247063,0.032994214,-0.011656979,0.00035731617,-0.00067297206,-0.0008520037,2.010292,-0.027066575,-0.034996305,1.6069243,-0.0006440282,488.11038,5.9262753,0.48221081,0.4596601,0.16950321,0.13080366,inf,inf,inf,inf,1,1,1,1,2,0,2,1,3,1,1,1,0,0
84240000,84240000,904000,47.3977508,8.5456073,-1.9101926,0.02702459,-5.8206825,-0.011087549,0.007383476,0.0,0.6770026,-0.014190045,0.037002023,-0.012999707,0.00035731617,-0.00067297206,-0.0008520037,1.893874,0.0017857236,0.07842946,1.6068562,-0.0006440282,488.11038,5.941813,0.49283823,0.4635586,0.17691225,0.13218273,inf,inf,inf,inf,1,1,1,1,2,0,2,1,3,1,1,1,0,0
84744000,84744000,904000,47.3977508,8.5456073,-1.3914039,0.02213171,-5.8150682,-0.011087549,0.007383476,0.0,1.4960052,-0.015323851,0.051708743,0.008821365,0.00035731617,-0.00067297206,-0.0008520037,1.3736688,0.018332575,0.049972903,1.6068549,-0.0006440282,488.11038,5.9361987,0.46139073,0.45858735,0.16642109,0.12814467,inf,inf,inf,inf,1,1,1,1,2,0,2,1,3,1,1,1,0,0
85240000,85240000,904000,47.3977508,8.5456073,-0.5516508,0.021421442,-5.8182597,-0.011087549,0.007383476,0.0,1.9472294,-0.01016049,0.06436033,0.013390978,0.00035731617,-0.00067297206,-0.0008520037,0.49681562,-0.012871547,0.042784024,1.6068633,-0.0006440282,488.11038,5.93939,0.47119975,0.45824495,0.17132598,0.12898903,inf,inf,inf,inf,1,1,1,1,2,0,2,1,3,1,1,1,0,0
85744000,85744000,904000,47.3977508,8.5456073,0.44321224,0.019278895,-5.8154597,-0.011087549,0.007383476,0.0,1.9314826,-0.01007115,0.06799712,0.013278838,0.00035731617,-0.00067297206,-0.0008520037,-0.5928997,-0.014190721,0.034558583,1.606737,-0.0006440282,488.11038,5.93659,0.48245037,0.46253872,0.17384255,0.13071263,inf,inf,inf,inf,1,1,1,1,2,0,2,1,3,1,1,1,0,0
86240000,86240000,904000,47.3977508,8.5456073,1.3118507,0.017065708,-5.801639,-0.011087549,0.007383476,0.0,1.4373939,-0.0061284876,0.0646368,0.017644683,0.00035731617,-0.00067297206,-0.0008520037,-1.421065,-0.003191133,-0.029973684,1.6066917,-0.0006440282,488.11038,5.9227695,0.49323264,0.4661422,0.1747063,0.13233747,inf,inf,inf,inf,1,1,1,1,2,0,2,1,3,1,1,1,0,0
86744000,86744000,904000,47.3977508,8.5456073,1.8682262,0.0083599435,-5.8020625,-0.011087549,0.007383476,0.0,0.59111947,-0.0064063007,0.04148844,-0.0070171366,0.00035731617,-0.00067297206,-0.0008520037,-1.9524517,0.015003242,-0.054642554,1.6066259,-0.0006440282,488.11038,5.923193,0.4616912,0.45695454,0.16019434,0.12802035,inf,inf,inf,inf,1,1,1,1,2,0,2,1,3,1,1,1,0,0
87240000,87240000,904000,47.3977508,8.5456073,1.9495937,-0.0008428207,-5.8126273,-0.011087549,0.007383476,0.0,-0.377135,-0.0015894145,0.030585006,-0.019059736,0.00035731617,-0.00067297206,-0.0008520037,-1.9309018,-0.007991038,0.044926997,1.6070355,-0.0006440282,488.11038,5.933758,0.4712911,0.46054217,0.16497408,0.12946142,inf,inf,inf,inf,1,1,1,1,2,0,2,1,3,1,1,1,0,0
87744000,87744000,904000,47.3977508,8.5456073,1.5425615,-0.0018490033,-5.809135,-0.011087549,0.007383476,0.0,-1.2554361,0.0021606323,0.043215375,0.0022114916,0.00035731617,-0.00067297206,-0.0008520037,-1.5008752,-0.0043635806,0.05354825,1.607748,-0.0006440282,488.11038,5.9302654,0.48205775,0.46093333,0.17148684,0.13044533,inf,inf,inf,inf,1,1,1,1,2,0,2,1,3,1,1,1,0,0
88240000,88240000,904000,47.3977508,8.5456073,0.7670814,-0.0017118533,-5.798011,-0.011087549,0.007383476,0.0,-1.8155885,0.006195835,0.047444697,0.013502034,0.00035731617,-0.00067297206,-0.0008520037,-0.7388983,0.026132256,0.027822329,1.6080809,-0.0006440282,488.11038,5.9191413,0.49251172,0.46456674,0.17688341,0.13184398,inf,inf,inf,inf,1,1,1,1,2,0,2,1,3,1,1,1,0,0
88744000,88744000,904000,47.3977508,8.5456073,-0.21612632,0.0015703051,-5.782427,-0.011087549,0.007383476,0.0,-1.9272726,0.008643055,0.03905467,0.012804959,0.00035731617,-0.00067297206,-0.0008520037,0.2731207,-0.0026866181,-0.054925676,1.6079749,-0.0006440282,488.11038,5.9035573,0.46122053,0.45549288,0.1628815,0.12761767,inf,inf,inf,inf,1,1,1,1,2,0,2,1,3,1,1,1,0,0
89240000,89240000,904000,47.3977508,8.5456073,-1.1444746,0.00094346574,-5.7763276,-0.011087549,0.007383476,0.0,-1.5583174,0.004917446,0.024716439,-3.8072583e-05,0.00035731617,-0.00067297206,-0.0008520037,1.2512928,-0.00037800052,-0.00859145,1.6078988,-0.0006440282,488.11038,5.897458,0.4708779,0.4589152,0.16513836,0.12933023,inf,inf,inf,inf,1,1,1,1,2,0,2,1,3,1,1,1,0,0
89744000,89744000,904000,47.3977508,8.5456073,-1.801815,0.00042491284,-5.784373,-0.011087549,0.007383476,0.0,-0.78626627,0.0055222963,0.02216642,-0.009523001,0.00035731617,-0.00067297206,-0.0008520037,1.8420787,-0.005160298,0.0014575197,1.6075851,-0.0006440282,488.11038,5.9055033,0.4818821,0.46312848,0.16877183,0.13117348,inf,inf,inf,inf,1,1,1,1,2,0,2,1,3,1,1,1,0,0
90240000,90240000,904000,47.3977508,8.5456073,-2.0245907,0.0075318953,-5.7926116,-0.011087549,0.007383476,0.0,0.16484238,0.010572132,0.011254809,-0.020658975,0.00035731617,-0.00067297206,-0.0008520037,2.0449417,0.011515919,0.015460885,1.6069709,-0.0006440282,488.11038,5.913742,0.4925201,0.4625933,0.17479081,0.13207208,inf,inf,inf,inf,1,1,1,1,2,0,2,1,3,1,1,1,0,0
90744000,90744000,904000,47.3977508,8.5456073,-1.7710608,0.011630662,-5.797728,-0.011087549,0.007383476,0.0,1.0975024,0.0066919834,0.021321252,-0.0073971837,0.00035731617,-0.00067297206,-0.0008520037,1.7166623,0.0020216973,0.0012209638,1.6068137,-0.0006440282,488.11038,5.9188585,0.46119192,0.4576043,0.16479856,0.12810278,inf,inf,inf,inf,1,1,1,1,2,0,2,1,3,1,1,1,0,0
91244000,91240000,904000,47.3977508,8.5456073,-1.1006962,0.012091411,-5.797497,-0.011087549,0.007383476,0.0,1.7697244,0.0023070765,0.039854247,0.011477368,0.00035731617,-0.00067297206,-0.0008520037,1.0217814,0.0056014247,-0.0087926155,1.60693,-0.0006440282,488.11038,5.9186273,0.47109538,0.45745265,0.1710718,0.12896484,inf,inf,inf,inf,1,1,1,1,2,0,2,1,3,1,1,1,0,0
91740000,91736000,904000,47.3977508,8.5456073,-0.16721742,0.016762841,-5.79079,-0.011087549,0.007383476,0.0,2.029933,0.0019364471,0.03968164,0.011660812,0.00035731617,-0.00067297206,-0.0008520037,0.037294984,-0.041353617,0.02076756,1.6069745,-0.0006440282,488.11038,5.9119205,0.48159215,0.46140978,0.17492746,0.1305096,inf,inf,inf,inf,1,1,1,1,2,0,2,1,3,1,1,1,0,0
92244000,92240000,904000,47.3977508,8.5456073,0.8024127,0.021903452,-5.7902393,-0.011087549,0.007383476,0.0,1.79634,-0.0012784426,0.0443124,0.011977982,0.00035731617,-0.00067297206,-0.0008520037,-0.935808,-0.0029854416,0.011220573,1.6066403,-0.0006440282,488.11038,5.91137,0.4934786,0.4620928,0.1767388,0.13181226,inf,inf,inf,inf,1,1,1,1,2,0,2,1,3,1,1,1,0,0
92740000,92736000,904000,47.3977508,8.5456073,1.5463184,0.024674758,-5.782312,-0.011087549,0.007383476,0.0,1.1373603,-0.0061717993,0.036679436,0.0071694106,0.00035731617,-0.00067297206,-0.0008520037,-1.6750933,-0.019863917,-0.037934627,1.60674,-0.0006440282,488.11038,5.9034424,0.46121868,0.45669183,0.16078296,0.12803966,inf,inf,inf,inf,1,1,1,1,2,0,2,1,3,1,1,1,0,0
93244000,93240000,904000,47.3977508,8.5456073,1.9012743,0.023852173,-5.77489,-0.011087549,0.007383476,0.0,0.20113632,-0.008390596,0.008311195,-0.011668387,0.00035731617,-0.00067297206,-0.0008520037,-1.9859703,0.029781148,-0.020125879,1.6068871,-0.0006440282,488.11038,5.8960204,0.47181237,0.45732152,0.16457637,0.12927353,inf,inf,inf,inf,1,1,1,1,2,0,2,1,3,1,1,1,0,0
93740000,93736000,904000,47.3977508,8.5456073,1.7742738,0.023418654,-5.7744384,-0.011087549,0.007383476,0.0,-0.74529094,-0.011197086,-0.0052417372,-0.01659694,0.00035731617,-0.00067297206,-0.0008520037,-1.7955681,-0.0050687375,0.060513612,1.6074256,-0.0006440282,488.11038,5.895569,0.48186618,0.45738333,0.17016143,0.13021207,inf,inf,inf,inf,1,1,1,1,2,0,2,1,3,1,1,1,0,0
94244000,94240000,904000,47.3977508,8.5456073,1.2055888,0.02499557,-5.7689652,-0.011087549,0.007383476,0.0,-1.517613,-0.011473377,0.008297056,0.0043380302,0.00035731617,-0.00067297206,-0.0008520037,-1.2190518,0.008644884,0.032491047,1.6079272,-0.0006440282,488.11038,5.8900957,0.4932376,0.4621868,0.17656344,0.13183011,inf,inf,inf,inf,1,1,1,1,2,0,2,1,3,1,1,1,0,0
94740000,94736000,904000,47.3977508,8.5456073,0.339559,0.029026179,-5.7576823,-0.011087549,0.007383476,0.0,-1.9089762,-0.014737263,0.010747887,0.01274478,0.00035731617,-0.00067297206,-0.0008520037,-0.33392406,0.0028195207,0.021833925,1.6080691,-0.0006440282,488.11038,5.878813,0.46111947,0.45685497,0.1634438,0.12792419,inf,inf,inf,inf,1,1,1,1,2,0,2,1,3,1,1,1,0,0
95244000,95240000,904000,47.3977508,8.5456073,-0.6241595,0.033848308,-5.7492194,-0.011087549,0.007383476,0.0,-1.8229616,-0.016959596,0.00096956495,0.0057243123,0.00035731617,-0.00067297206,-0.0008520037,0.65865827,-0.020724852,-0.03597885,1.6078721,-0.0006440282,488.11038,5.87035,0.47158918,0.45751575,0.16654165,0.12925448,inf,inf,inf,inf,1,1,1,1,2,0,2,1,3,1,1,1,0,0
95740000,95736000,904000,47.3977508,8.5456073,-1.4215997,0.041074328,-5.745178,-0.011087549,0.007383476,0.0,-1.2839159,-0.014597707,-0.0024005286,0.0029926032,0.00035731617,-0.00067297206,-0.0008520037,1.4415995,-0.03066979,-0.040869225,1.6075065,-0.0006440282,488.11038,5.8663087,0.48178402,0.46140593,0.1689977,0.13094649,inf,inf,inf,inf,1,1,1,1,2,0,2,1,3,1,1,1,0,0
96244000,96240000,904000,47.3977508,8.5456073,-1.8766725,0.04530766,-5.7429123,-0.011087549,0.007383476,0.0,-0.42688483,-0.01916299,-0.02508754,-0.015552439,0.00035731617,-0.00067297206,-0.0008520037,1.886001,0.005386435,-0.056750137,1.6070879,-0.0006440282,488.11038,5.8640428,0.4933388,0.4620433,0.17362721,0.1321293,inf,inf,inf,inf,1,1,1,1,2,0,2,1,3,1,1,1,0,0
96740000,96736000,904000,47.3977508,8.5456073,-1.8565383,0.045848455,-5.7592916,-0.011087549,0.007383476,0.0,0.5152153,-0.021683993,-0.026400449,-0.022406442,0.00035731617,-0.00067297206,-0.0008520037,1.8017029,-0.00086854555,0.020451842,1.6069636,-0.0006440282,488.11038,5.880422,0.4611382,0.4564836,0.16259967,0.12803277,inf,inf,inf,inf,1,1,1,1,2,0,2,1,3,1,1,1,0,0
97244000,97240000,904000,47.3977508,8.5456073,-1.3721253,0.047328345,-5.7657413,-0.011087549,0.007383476,0.0,1.3377107,-0.022783255,0.0007815582,0.0040252227,0.00035731617,-0.00067297206,-0.0008520037,1.3505862,-0.015436875,0.02334453,1.6071223,-0.0006440282,488.11038,5.886872,0.4717181,0.45700872,0.1694137,0.12901503,inf,inf,inf,inf,1,1,1,1,2,0,2,1,3,1,1,1,0,0
97740000,97736000,904000,47.3977508,8.5456073,-0.54996294,0.043157026,-5.7565565,-0.011087549,0.007383476,0.0,1.8228544,-0.023813799,0.005044474,0.012626166,0.00035731617,-0.00067297206,-0.0008520037,0.50649774,0.0110142715,0.02095755,1.6068801,-0.0006440282,488.11038,5.877687,0.48206303,0.460821,0.17452341,0.13046001,inf,inf,inf,inf,1,1,1,1,2,0,2,1,3,1,1,1,0,0
98244000,98240000,904000,47.3977508,8.5456073,0.43015826,0.04093925,-5.7451925,-0.011087549,0.007383476,0.0,1.8522387,-0.019089486,-0.0023051975,0.009606834,0.00035731617,-0.00067297206,-0.0008520037,-0.46331057,-0.023395695,-0.02036616,1.6066148,-0.0006440282,488.11038,5.866323,0.4937222,0.46534956,0.17758699,0.13224728,inf,inf,inf,inf,1,1,1,1,2,0,2,1,3,1,1,1,0,0
98740000,98736000,904000,47.3977508,8.5456073,1.3040756,0.03691301,-5.729029,-0.011087549,0.007383476,0.0,1.41033,-0.020728426,-0.011861693,0.009255167,0.00035731617,-0.00067297206,-0.0008520037,-1.3431727,-0.017972168,-0.025758518,1.6063869,-0.0006440282,488.11038,5.8501596,0.46136013,0.45577878,0.16165209,0.12795942,inf,inf,inf,inf,1,1,1,1,2,0,2,1,3,1,1,1,0,0
99244000,99240000,904000,47.3977508,8.5456073,1.9008839,0.034267932,-5.726705,-0.011087549,0.007383476,0.0,0.6112942,-0.019857306,-0.03378387,-0.011846088,0.00035731617,-0.00067297206,-0.0008520037,-1.8625346,0.0037993593,-0.02523884,1.6067271,-0.0006440282,488.11038,5.8478355,0.4719796,0.460223,0.16464582,0.12981205,inf,inf,inf,inf,1,1,1,1,2,0,2,1,3,1,1,1,0,0
99740000,99736000,904000,47.3977508,8.5456073,2.0373802,0.030186512,-5.7446156,-0.011087549,0.007383476,0.0,-0.34309652,-0.01907939,-0.043296203,-0.028769145,0.00035731617,-0.00067297206,-0.0008520037,-2.0101013,-0.020153891,0.04509743,1.6071901,-0.0006440282,488.11038,5.865746,0.48206455,0.460037,0.16936956,0.13074991,inf,inf,inf,inf,1,1,1,1,2,0,2,1,3,1,1,1,0,0
100244000,100240000,904000,47.3977508,8.5456073,1.7097191,0.022258021,-5.754285,-0.011087549,0.007383476,0.0,-1.2344002,-0.022984859,-0.017714802,-0.004302272,0.00035731617,-0.00067297206,-0.0008520037,-1.678456,-0.012848831,-0.008217058,1.6072952,-0.0006440282,488.11038,5.8754153,0.45458275,0.45550564,0.16056073,0.12712905,inf,inf,inf,inf,1,1,1,1,2,0,2,1,3,1,1,1,0,0
100740000,100736000,904000,47.3977508,8.5456073,0.9836504,0.015797367,-5.750008,-0.011087549,0.007383476,0.0,-1.855812,-0.019460706,-0.0042256406,0.011409503,0.00035731617,-0.00067297206,-0.0008520037,-0.8898032,0.026487831,0.0082757315,1.607673,-0.0006440282,488.11038,5.8711386,0.4663548,0.45938545,0.16754116,0.12886576,inf,inf,inf,inf,1,1,1,1,2,0,2,1,3,1,1,1,0,0
101244000,101240000,904000,47.3977508,8.5456073,0.00981362,0.011467953,-5.740864,-0.011087549,0.007383476,0.0,-2.0462017,-0.018604452,-0.006988887,0.01094463,0.00035731617,-0.00067297206,-0.0008520037,0.088384606,0.009430586,-0.01673214,1.6078287,-0.0006440282,488.11038,5.8619943,0.47967535,0.46005335,0.17277995,0.13036373,inf,inf,inf,inf,1,1,1,1,2,0,2,1,3,1,1,1,0,0
101740000,101736000,904000,47.3977508,8.5456073,-0.9236862,0.023322647,-5.738515,-0.011087549,0.007383476,0.0,-1.7354994,-0.01556097,-0.011087175,0.0048382073,0.00035731617,-0.00067297206,-0.0008520037,1.0698842,-0.023044731,0.020975245,1.6074002,-0.0006440282,488.11038,5.8596454,0.45198855,0.45484227,0.15939169,0.12697157,inf,inf,inf,inf,1,1,1,1,2,0,2,1,3,1,1,1,0,0
102244000,102240000,904000,47.3977508,8.5456073,-1.6214147,0.03135798,-5.7367225,-0.011087549,0.007383476,0.0,-1.0148599,-0.022628397,-0.017086893,-0.0011015644,0.00035731617,-0.00067297206,-0.0008520037,1.7576549,-0.043557953,-0.040848736,1.6071812,-0.0006440282,488.11038,5.857853,0.4637125,0.45536765,0.16318682,0.12848268,inf,inf,inf,inf,1,1,1,1,2,0,2,1,3,1,1,1,0,0
102740000,102736000,904000,47.3977508,8.5456073,-1.8980088,0.03413995,-5.7378664,-0.011087549,0.007383476,0.0,-0.07847675,-0.028848557,-0.042933144,-0.022315167,0.00035731617,-0.00067297206,-0.0008520037,2.0007288,-0.021563565,-0.020477919,1.6068513,-0.0006440282,488.11038,5.858997,0.4750132,0.45931405,0.16881196,0.13019575,inf,inf,inf,inf,1,1,1,1,2,0,2,1,3,1,1,1,0,0
103244000,103240000,904000,47.3977508,8.5456073,-1.6896529,0.03666653,-5.7464437,-0.011087549,0.007383476,0.0,0.8687362,-0.031405944,-0.034603436,-0.01294463,0.00035731617,-0.00067297206,-0.0008520037,1.6863586,0.0051880484,0.019109806,1.606779,-0.0006440282,488.11038,5.867574,0.48762852,0.46009573,0.17644833,0.13136226,inf,inf,inf,inf,1,1,1,1,2,0,2,1,3,1,1,1,0,0
103740000,103736000,904000,47.3977508,8.5456073,-1.0520656,0.048122976,-5.7455244,-0.011087549,0.007383476,0.0,1.5758885,-0.035704575,-0.017490882,0.0055155763,0.00035731617,-0.00067297206,-0.0008520037,1.0855836,-0.031851653,0.013663433,1.6067716,-0.0006440282,488.11038,5.866655,0.45719308,0.45488578,0.16498978,0.12744938,inf,inf,inf,inf,1,1,1,1,2,0,2,1,3,1,1,1,0,0
104244000,104240000,904000,47.3977508,8.5456073,-0.1286499,0.06386525,-5.742402,-0.011087549,0.007383476,0.0,1.8902959,-0.040592536,-0.005950193,0.014233955,0.00035731617,-0.00067297206,-0.0008520037,0.13344164,-0.010806688,-0.035924833,1.6069975,-0.0006440282,488.11038,5.8635325,0.4684769,0.45939797,0.16944036,0.12923467,inf,inf,inf,inf,1,1,1,1,2,0,2,1,3,1,1,1,0,0
104740000,104736000,904000,47.3977508,8.5456073,0.8317758,0.068969145,-5.733987,-0.011087549,0.007383476,0.0,1.7239171,-0.049779333,-0.011564639,0.010213307,0.00035731617,-0.00067297206,-0.0008520037,-0.8663343,-0.040245328,-0.044170763,1.6069201,-0.0006440282,488.11038,5.8551173,0.47950977,0.4593219,0.17164876,0.13046636,inf,inf,inf,inf,1,1,1,1,2,0,2,1,3,1,1,1,0,0
105244000,105240000,904000,47.3977508,8.5456073,1.6181667,0.065586485,-5.7269726,-0.011087549,0.007383476,0.0,1.1006342,-0.056742754,-0.0178454,0.0057508936,0.00035731617,-0.00067297206,-0.0008520037,-1.6513505,-0.011107229,-0.03824755,1.6067984,-0.0006440282,488.11038,5.848103,0.4915809,0.46401137,0.17360283,0.13241734,inf,inf,inf,inf,1,1,1,1,2,0,2,1,3,1,1,1,0,0
105740000,105736000,904000,47.3977508,8.5456073,2.0193398,0.06276403,-5.7251673,-0.011087549,0.007383476,0.0,0.20444912,-0.05810892,-0.044012137,-0.016216306,0.00035731617,-0.00067297206,-0.0008520037,-2.0050116,-0.013331489,-0.029849818,1.6069335,-0.0006440282,488.11038,5.8462977,0.45988292,0.45465118,0.15997377,0.12799235,inf,inf,inf,inf,1,1,1,1,2,0,2,1,3,1,1,1,0,0
106244000,106240000,904000,47.3977508,8.5456073,1.9519949,0.06310868,-5.7372036,-0.011087549,0.007383476,0.0,-0.76172686,-0.059419587,-0.044906437,-0.019581845,0.00035731617,-0.00067297206,-0.0008520037,-1.8537384,-0.0021774466,0.026350839,1.6072752,-0.0006440282,488.11038,5.858334,0.47053355,0.45911297,0.16541052,0.12958126,inf,inf,inf,inf,1,1,1,1,2,0,2,1,3,1,1,1,0,0
106740000,106736000,904000,47.3977508,8.5456073,1.4331005,0.06615083,-5.7499623,-0.011087549,0.007383476,0.0,-1.5513428,-0.054128744,-0.016515307,0.0009915883,0.00035731617,-0.00067297206,-0.0008520037,-1.4059743,-0.041533988,0.021737998,1.6075301,-0.0006440282,488.11038,5.871093,0.48069376,0.4589944,0.1710455,0.13036053,inf,inf,inf,inf,1,1,1,1,2,0,2,1,3,1,1,1,0,0
107244000,107240000,904000,47.3977508,8.5456073,0.5709978,0.06615498,-5.750533,-0.011087549,0.007383476,0.0,-1.9991722,-0.059275564,-0.00044561803,0.012995063,0.00035731617,-0.00067297206,-0.0008520037,-0.4980755,-0.04012833,0.03959238,1.607959,-0.0006440282,488.11038,5.8716636,0.49221784,0.46367168,0.17604516,0.13196504,inf,inf,inf,inf,1,1,1,1,2,0,2,1,3,1,1,1,0,0
107740000,107736000,904000,47.3977508,8.5456073,-0.40805116,0.06389508,-5.7394457,-0.011087549,0.007383476,0.0,-1.9764894,-0.05860327,-0.009667475,0.0077665565,0.00035731617,-0.00067297206,-0.0008520037,0.5148867,-0.03918391,-0.036967915,1.6077852,-0.0006440282,488.11038,5.860576,0.46029752,0.45806277,0.1616713,0.12807375,inf,inf,inf,inf,1,1,1,1,2,0,2,1,3,1,1,1,0,0
108244000,108240000,904000,47.3977508,8.5456073,-1.2798407,0.058918644,-5.7485585,-0.011087549,0.007383476,0.0,-1.4657264,-0.057082083,-0.008648158,-0.0017808762,0.00035731617,-0.00067297206,-0.0008520037,1.4064479,-0.041419145,0.055031847,1.607459,-0.0006440282,488.11038,5.869689,0.4708353,0.45851552,0.16450337,0.129379,inf,inf,inf,inf,1,1,1,1,2,0,2,1,3,1,1,1,0,0
108740000,108736000,904000,47.3977508,8.5456073,-1.8078529,0.051464785,-5.762918,-0.011087549,0.007383476,0.0,-0.6289298,-0.048399847,-0.0098366,-0.0137509145,0.00035731617,-0.00067297206,-0.0008520037,1.9024584,-0.0042182505,0.014767981,1.6071798,-0.0006440282,488.11038,5.8840485,0.48100856,0.4622847,0.1684489,0.1309571,inf,inf,inf,inf,1,1,1,1,2,0,2,1,3,1,1,1,0,0
109244000,109240000,904000,47.3977508,8.5456073,-1.8812169,0.047110233,-5.774453,-0.011087549,0.007383476,0.0,0.35360864,-0.044987727,-0.00985505,-0.01538079,0.00035731617,-0.00067297206,-0.0008520037,1.9097109,0.014467062,0.038306225,1.6070445,-0.0006440282,488.11038,5.8955836,0.49267617,0.46288586,0.1751627,0.13202116,inf,inf,inf,inf,1,1,1,1,2,0,2,1,3,1,1,1,0,0
109740000,109736000,904000,47.3977508,8.5456073,-1.4882601,0.048822537,-5.784821,-0.011087549,0.007383476,0.0,1.2165174,-0.041016787,0.012399838,0.0020252422,0.00035731617,-0.00067297206,-0.0008520037,1.4919589,0.0015121185,0.012155621,1.6067388,-0.0006440282,488.11038,5.9059515,0.46048912,0.45731834,0.16414769,0.12787105,inf,inf,inf,inf,1,1,1,1,2,0,2,1,3,1,1,1,0,0
110244000,110240000,904000,47.3977508,8.5456073,-0.70636535,0.044169936,-5.7717094,-0.011087549,0.007383476,0.0,1.791251,-0.038292937,0.025381548,0.023298329,0.00035731617,-0.00067297206,-0.0008520037,0.7177875,0.019498182,0.0036824492,1.6069547,-0.0006440282,488.11038,5.89284,0.47106847,0.45783207,0.16986227,0.1289317,inf,inf,inf,inf,1,1,1,1,2,0,2,1,3,1,1,1,0,0
110740000,110736000,904000,47.3977508,8.5456073,0.26154003,0.046161547,-5.7592893,-0.011087549,0.007383476,0.0,1.9028248,-0.033241164,0.017838774,0.018320782,0.00035731617,-0.00067297206,-0.0008520037,-0.30494404,-0.022062419,-0.03797747,1.606906,-0.0006440282,488.11038,5.8804197,0.44615284,0.45305818,0.15908687,0.12576778,inf,inf,inf,inf,1,1,1,1,2,0,2,1,3,1,1,1,0,0
111244000,111240000,904000,47.3977508,8.5456073,1.1967343,0.04091071,-5.7524223,-0.011087549,0.007383476,0.0,1.5230763,-0.03175912,0.008669269,0.009350611,0.00035731617,-0.00067297206,-0.0008520037,-1.2496927,0.0077668224,-0.010539777,1.6068255,-0.0006440282,488.11038,5.873553,0.45833814,0.4538568,0.16248383,0.12753727,inf,inf,inf,inf,1,1,1,1,2,0,2,1,3,1,1,1,0,0
111740000,111736000,904000,47.3977508,8.5456073,1.8336713,0.03227171,-5.757242,-0.011087549,0.007383476,0.0,0.7614989,-0.0283073,-0.0022396117,-0.007509262,0.00035731617,-0.00067297206,-0.0008520037,-1.8829464,0.00483157,-0.00012386589,1.6068093,-0.0006440282,488.11038,5.8783727,0.47016788,0.4578042,0.16580056,0.12951851,inf,inf,inf,inf,1,1,1,1,2,0,2,1,3,1,1,1,0,0
112244000,112240000,904000,47.3977508,8.5456073,2.0233502,0.02397849,-5.774404,-0.011087549,0.007383476,0.0,-0.20885338,-0.023340961,-0.0043545687,-0.018381696,0.00035731617,-0.00067297206,-0.0008520037,-1.9862067,-0.006211543,0.07239542,1.607157,-0.0006440282,488.11038,5.8955345,0.48312277,0.45864823,0.17117542,0.13093495,inf,inf,inf,inf,1,1,1,1,2,0,2,1,3,1,1,1,0,0
112740000,112736000,904000,47.3977508,8.5456073,1.7373166,0.022331007,-5.7843122,-0.011087549,0.007383476,0.0,-1.1182848,-0.018005159,0.015054635,-0.00229222,0.00035731617,-0.00067297206,-0.0008520037,-1.6971782,-0.0024741164,0.0780113,1.6076818,-0.0006440282,488.11038,5.9054427,0.4542288,0.45367485,0.16060437,0.12715371,inf,inf,inf,inf,1,1,1,1,2,0,2,1,3,1,1,1,0,0
113244000,113240000,904000,47.3977508,8.5456073,1.0311563,0.02003171,-5.7916393,-0.011087549,0.007383476,0.0,-1.7807068,-0.015975535,0.036064006,0.010788348,0.00035731617,-0.00067297206,-0.0008520037,-0.9381711,-0.0063686306,0.014519318,1.6080086,-0.0006440282,488.11038,5.91277,0.4655886,0.4583152,0.166419,0.12888016,inf,inf,inf,inf,1,1,1,1,2,0,2,1,3,1,1,1,0,0
113740000,113736000,904000,47.3977508,8.5456073,0.0997253,0.0163572,-5.793948,-0.011087549,0.007383476,0.0,-2.0142424,-0.012196643,0.04302917,0.010479869,0.00035731617,-0.00067297206,-0.0008520037,-0.027451314,0.01468211,0.032635402,1.6081097,-0.0006440282,488.11038,5.9150786,0.47659165,0.458292,0.17040573,0.12998115,inf,inf,inf,inf,1,1,1,1,2,0,2,1,3,1,1,1,0,0
114244000,114240000,904000,47.3977508,8.5456073,-0.86442816,0.01773137,-5.7959156,-0.011087549,0.007383476,0.0,-1.7703202,-0.010105189,0.04522478,0.0082124835,0.00035731617,-0.00067297206,-0.0008520037,0.97714895,-0.017900994,0.007663853,1.6080259,-0.0006440282,488.11038,5.917046,0.4889165,0.46291348,0.17345574,0.13190326,inf,inf,inf,inf,1,1,1,1,2,0,2,1,3,1,1,1,0,0
114740000,114736000,904000,47.3977508,8.5456073,-1.5985894,0.019587819,-5.7958527,-0.011087549,0.007383476,0.0,-1.1033815,-0.0078009525,0.04120524,0.0030293681,0.00035731617,-0.00067297206,-0.0008520037,1.6699815,0.0030601367,-0.0411272,1.6074842,-0.0006440282,488.11038,5.916983,0.45797282,0.4536298,0.1596294,0.12762347,inf,inf,inf,inf,1,1,1,1,2,0,2,1,3,1,1,1,0,0
115244000,115240000,904000,47.3977508,8.5456073,-1.9388057,0.0138978325,-5.8017025,-0.011087549,0.007383476,0.0,-0.16493447,-0.0071130763,0.017860787,-0.020533476,0.00035731617,-0.00067297206,-0.0008520037,1.9953618,0.031179281,-0.020962207,1.607339,-0.0006440282,488.11038,5.922833,0.46896395,0.4581458,0.1649029,0.1293696,inf,inf,inf,inf,1,1,1,1,2,0,2,1,3,1,1,1,0,0
115740000,115736000,904000,47.3977508,8.5456073,-1.7946678,0.009587539,-5.8119698,-0.011087549,0.007383476,0.0,0.7817526,-0.005043869,0.029945416,-0.008835278,0.00035731617,-0.00067297206,-0.0008520037,1.8388098,-0.013466807,0.08231866,1.6070079,-0.0006440282,488.11038,5.9331,0.47954506,0.46202216,0.17146738,0.13077521,inf,inf,inf,inf,1,1,1,1,2,0,2,1,3,1,1,1,0,0
116244000,116240000,904000,47.3977508,8.5456073,-1.1987488,0.011244523,-5.812221,-0.011087549,0.007383476,0.0,1.5481161,-0.001707646,0.0451172,0.0069585247,0.00035731617,-0.00067297206,-0.0008520037,1.1866391,-0.0015828554,0.04066806,1.6066352,-0.0006440282,488.11038,5.9333515,0.49153695,0.46255824,0.17837946,0.13173446,inf,inf,inf,inf,1,1,1,1,2,0,2,1,3,1,1,1,0,0
116740000,116736000,904000,47.3977508,8.5456073,-0.31019914,0.014216716,-5.802245,-0.011087549,0.007383476,0.0,1.9200498,-0.0011925747,0.05648948,0.02124137,0.00035731617,-0.00067297206,-0.0008520037,0.27511716,0.015142751,-0.01623202,1.6066865,-0.0006440282,488.11038,5.9233756,0.45967534,0.45699185,0.16461337,0.12776339,inf,inf,inf,inf,1,1,1,1,2,0,2,1,3,1,1,1,0,0
117244000,117240000,904000,47.3977508,8.5456073,0.6918242,0.014004382,-5.7873487,-0.011087549,0.007383476,0.0,1.810103,-0.0010712842,0.046345882,0.017070921,0.00035731617,-0.00067297206,-0.0008520037,-0.76962423,0.0015785334,-0.015593133,1.6064209,-0.0006440282,488.11038,5.908479,0.47053906,0.45762092,0.16739161,0.129121,inf,inf,inf,inf,1,1,1,1,2,0,2,1,3,1,1,1,0,0
117740000,117736000,904000,47.3977508,8.5456073,1.5087501,0.010452229,-5.7731743,-0.011087549,0.007383476,0.0,1.2394817,0.00072067993,0.03395796,0.011174072,0.00035731617,-0.00067297206,-0.0008520037,-1.56837,-0.032638706,0.003825873,1.6064734,-0.0006440282,488.11038,5.8943048,0.48096657,0.46154743,0.1691774,0.13087125,inf,inf,inf,inf,1,1,1,1,2,0,2,1,3,1,1,1,0,0
118244000,118240000,904000,47.3977508,8.5456073,1.9692742,0.003942,-5.766674,-0.011087549,0.007383476,0.0,0.34815544,0.0014055743,0.0033072638,-0.013473735,0.00035731617,-0.00067297206,-0.0008520037,-1.9751095,0.01676919,-0.033178363,1.6064653,-0.0006440282,488.11038,5.8878045,0.49254036,0.4621506,0.17262486,0.13208975,inf,inf,inf,inf,1,1,1,1,2,0,2,1,3,1,1,1,0,0
118740000,118736000,904000,47.3977508,8.5456073,1.9445688,0.0035287677,-5.772197,-0.011087549,0.007383476,0.0,-0.616247,0.00491959,-0.0054598534,-0.018523695,0.00035731617,-0.00067297206,-0.0008520037,-1.8859388,-0.04690904,0.005452893,1.6069211,-0.0006440282,488.11038,5.893327,0.46047497,0.45654258,0.16058026,0.12798539,inf,inf,inf,inf,1,1,1,1,2,0,2,1,3,1,1,1,0,0
119244000,119240000,904000,47.3977508,8.5456073,1.4482805,-0.0016724945,-5.7740297,-0.011087549,0.007383476,0.0,-1.4448099,0.002137388,0.0104947565,-0.000109214656,0.00035731617,-0.00067297206,-0.0008520037,-1.3792411,0.0071953833,0.008017755,1.6076331,-0.0006440282,488.11038,5.89516,0.4708559,0.4570234,0.1663597,0.12895854,inf,inf,inf,inf,1,1,1,1,2,0,2,1,3,1,1,1,0,0
119740000,119736000,904000,47.3977508,8.5456073,0.6229616,0.00035516746,-5.764165,-0.011087549,0.007383476,0.0,-1.9229841,0.00090186903,0.0162506,0.011713651,0.00035731617,-0.00067297206,-0.0008520037,-0.5721871,-0.0015331606,0.027685424,1.6079,-0.0006440282,488.11038,5.8852954,0.48089418,0.46069556,0.17103441,0.13034584,inf,inf,inf,inf,1,1,1,1,2,0,2,1,3,1,1,1,0,0
120244000,120240000,904000,47.3977508,8.5456073,-0.36975265,0.0069726007,-5.7638874,-0.011087549,0.007383476,0.0,-1.9510336,-0.0017624295,0.013032938,0.0039693443,0.00035731617,-0.00067297206,-0.0008520037,0.47212598,-0.018754972,0.012642703,1.6078864,-0.0006440282,488.11038,5.885018,0.4923619,0.46520168,0.17461456,0.13210942,inf,inf,inf,inf,1,1,1,1,2,0,2,1,3,1,1,1,0,0
120740000,120740000,904000,47.3977508,8.5456073,-1.2542232,0.008067187,-5.761721,-0.011087549,0.007383476,0.0,-1.4885741,-0.005369226,0.014422963,0.005255482,0.00035731617,-0.00067297206,-0.0008520037,1.3447188,0.02361652,-0.0094249835,1.6074214,-0.0006440282,488.11038,5.8828516,0.46036297,0.4556302,0.16027854,0.12776878,inf,inf,inf,inf,1,1,1,1,2,0,2,1,3,1,1,1,0,0
121244000,121244000,904000,47.3977508,8.5456073,-1.8315446,0.011816395,-5.752965,-0.011087549,0.007383476,0.0,-0.67034733,-0.003864426,-0.0070052166,-0.007314776,0.00035731617,-0.00067297206,-0.0008520037,1.9124244,0.007409849,-0.07007084,1.6071464,-0.0006440282,488.11038,5.8740954,0.47099543,0.46006602,0.16449325,0.12956059,inf,inf,inf,inf,1,1,1,1,2,0,2,1,3,1,1,1,0,0
121740000,121740000,904000,47.3977508,8.5456073,-1.9527401,0.012908773,-5.7574763,-0.011087549,0.007383476,0.0,0.28973222,-0.0046689245,-0.033540368,-0.028951406,0.00035731617,-0.00067297206,-0.0008520037,1.9472724,-0.01425734,-0.012563541,1.6068366,-0.0006440282,488.11038,5.878607,0.48121002,0.45984864,0.17042246,0.13047409,inf,inf,inf,inf,1,1,1,1,2,0,2,1,3,1,1,1,0,0
122244000,122244000,904000,47.3977508,8.5456073,-1.5932857,0.013827337,-5.7654786,-0.011087549,0.007383476,0.0,1.1843824,-0.004566462,-0.013040183,-0.008063429,0.00035731617,-0.00067297206,-0.0008520037,1.5428892,0.0035341943,0.052557323,1.6066043,-0.0006440282,488.11038,5.886609,0.49282974,0.46430498,0.17756908,0.13196707,inf,inf,inf,inf,1,1,1,1,2,0,2,1,3,1,1,1,0,0
122740000,122740000,904000,47.3977508,8.5456073,-0.8533016,0.009731515,-5.7628055,-0.011087549,0.007383476,0.0,1.7801085,-0.005796112,0.0041640447,0.009982824,0.00035731617,-0.00067297206,-0.0008520037,0.7875731,-0.0046061757,0.017617827,1.6066697,-0.0006440282,488.11038,5.883936,0.46058553,0.45475897,0.16494778,0.1273623,inf,inf,inf,inf,1,1,1,1,2,0,2,1,3,1,1,1,0,0
123244000,123244000,904000,47.3977508,8.5456073,0.10825711,0.0047677355,-5.7510586,-0.011087549,0.007383476,0.0,1.9443375,-0.0020093627,0.008107427,0.018375928,0.00035731617,-0.00067297206,-0.0008520037,-0.14237127,0.005942289,-0.031127593,1.6063982,-0.0006440282,488.11038,5.872189,0.47122276,0.45917663,0.16868176,0.12912151,inf,inf,inf,inf,1,1,1,1,2,0,2,1,3,1,1,1,0,0
123740000,123740000,904000,47.3977508,8.5456073,1.0242536,0.0040413737,-5.733755,-0.011087549,0.007383476,0.0,1.6236818,0.0018130586,-0.0034280375,0.015814625,0.00035731617,-0.00067297206,-0.0008520037,-1.1479315,0.019343235,-0.051440667,1.6062621,-0.0006440282,488.11038,5.8548856,0.48152333,0.4590086,0.17063671,0.13028999,inf,inf,inf,inf,1,1,1,1,2,0,2,1,3,1,1,1,0,0
124244000,124244000,904000,47.3977508,8.5456073,1.6993753,0.010803194,-5.7274776,-0.011087549,0.007383476,0.0,0.89689714,0.009941976,-0.021665724,-0.0012457359,0.00035731617,-0.00067297206,-0.0008520037,-1.7605221,0.0023593456,-0.06042141,1.6064348,-0.0006440282,488.11038,5.848608,0.49304506,0.46355945,0.17312926,0.13214867,inf,inf,inf,inf,1,1,1,1,2,0,2,1,3,1,1,1,0,0
124740000,124740000,904000,47.3977508,8.5456073,1.9539657,0.010958375,-5.7272515,-0.011087549,0.007383476,0.0,-0.038597822,0.007982195,-0.04663442,-0.021570653,0.00035731617,-0.00067297206,-0.0008520037,-1.993748,0.034356806,-0.061027702,1.6066902,-0.0006440282,488.11038,5.848382,0.46080497,0.4543342,0.16004965,0.12772174,inf,inf,inf,inf,1,1,1,1,2,0,2,1,3,1,1,1,0,0
125244000,125244000,904000,47.3977508,8.5456073,1.7354707,0.012411173,-5.727259,-0.011087549,0.007383476,0.0,-0.97247565,0.008433091,-0.040621433,-0.0071790046,0.00035731617,-0.00067297206,-0.0008520037,-1.735084,0.012320786,-0.014870427,1.6071218,-0.0006440282,488.11038,5.8483896,0.47114265,0.45529777,0.16559707,0.12887521,inf,inf,inf,inf,1,1,1,1,2,0,2,1,3,1,1,1,0,0
125740000,125740000,904000,47.3977508,8.5456073,1.0949122,0.014592242,-5.7242036,-0.011087549,0.007383476,0.0,-1.6721461,0.0065262243,-0.0354517,0.00089496013,0.00035731617,-0.00067297206,-0.0008520037,-1.0452251,-0.013162934,0.009370967,1.6077344,-0.0006440282,488.11038,5.845334,0.48109004,0.45931953,0.17092879,0.13030098,inf,inf,inf,inf,1,1,1,1,2,0,2,1,3,1,1,1,0,0
126244000,126244000,904000,47.3977508,8.5456073,0.16529968,0.011047416,-5.7179637,-0.011087549,0.007383476,0.0,-1.9735304,-0.00024088715,-0.030413968,0.007656692,0.00035731617,-0.00067297206,-0.0008520037,-0.08176005,0.01676756,-0.056705434,1.6077431,-0.0006440282,488.11038,5.839094,0.49244362,0.4640458,0.1753,0.13201024,inf,inf,inf,inf,1,1,1,1,2,0,2,1,3,1,1,1,0,0
126740000,126740000,904000,47.3977508,8.5456073,-0.78790534,0.0012899606,-5.716824,-0.011087549,0.007383476,0.0,-1.786963,0.00013242729,-0.036422975,-0.00041054818,0.00035731617,-0.00067297206,-0.0008520037,0.87331367,0.028175795,-0.013635493,1.6077859,-0.0006440282,488.11038,5.8379545,0.4603697,0.45455685,0.16090488,0.12764315,inf,inf,inf,inf,1,1,1,1,2,0,2,1,3,1,1,1,0,0
127244000,127244000,904000,47.3977508,8.5456073,-1.5573422,-0.012084157,-5.719341,-0.011087549,0.007383476,0.0,-1.1545002,0.0023445212,-0.03643415,-0.0030045,0.00035731617,-0.00067297206,-0.0008520037,1.6167079,0.027960062,-0.06523076,1.6073731,-0.0006440282,488.11038,5.8404713,0.4708259,0.4589974,0.16424567,0.12947917,inf,inf,inf,inf,1,1,1,1,2,0,2,1,3,1,1,1,0,0
127740000,127740000,904000,47.3977508,8.5456073,-1.9291407,-0.01716019,-5.725521,-0.011087549,0.007383476,0.0,-0.25648272,0.009814421,-0.054642882,-0.021767888,0.00035731617,-0.00067297206,-0.0008520037,1.957606,0.014780336,-0.039954666,1.6070013,-0.0006440282,488.11038,5.8466516,0.48095247,0.45888385,0.16899411,0.13046849,inf,inf,inf,inf,1,1,1,1,2,0,2,1,3,1,1,1,0,0
128240000,128236000,904000,47.3977508,8.5456073,-1.8241713,-0.012884358,-5.738406,-0.011087549,0.007383476,0.0,0.689705,0.012854421,-0.04584315,-0.015784223,0.00035731617,-0.00067297206,-0.0008520037,1.8272655,-0.008618124,0.039952803,1.6066374,-0.0006440282,488.11038,5.8595366,0.4915832,0.46275395,0.17540236,0.13184386,inf,inf,inf,inf,1,1,1,1,2,0,2,1,3,1,1,1,0,0
128744000,128740000,904000,47.3977508,8.5456073,-1.263718,-0.007000265,-5.7471995,-0.011087549,0.007383476,0.0,1.4728855,0.0111665325,-0.022692168,0.0017531405,0.00035731617,-0.00067297206,-0.0008520037,1.2339451,-0.02708958,0.014771706,1.606278,-0.0006440282,488.11038,5.86833,0.46046165,0.45783332,0.16424529,0.12788756,inf,inf,inf,inf,1,1,1,1,2,0,2,1,3,1,1,1,0,0
129240000,129236000,904000,47.3977508,8.5456073,-0.40326232,-0.0013421276,-5.739292,-0.011087549,0.007383476,0.0,1.8836031,0.009642011,-0.008057827,0.0188677,0.00035731617,-0.00067297206,-0.0008520037,0.3727801,0.018565347,-0.013393349,1.6064138,-0.0006440282,488.11038,5.8604226,0.47022882,0.45763606,0.16871957,0.12884167,inf,inf,inf,inf,1,1,1,1,2,0,2,1,3,1,1,1,0,0
129744000,129740000,904000,47.3977508,8.5456073,0.5823648,0.0086518405,-5.7228703,-0.011087549,0.007383476,0.0,1.8317336,0.0016807395,-0.017673327,0.016489238,0.00035731617,-0.00067297206,-0.0008520037,-0.61381173,-0.0077599827,-0.061487775,1.6061662,-0.0006440282,488.11038,5.844001,0.48138183,0.45831534,0.17176494,0.13018209,inf,inf,inf,inf,1,1,1,1,2,0,2,1,3,1,1,1,0,0
130240000,130236000,904000,47.3977508,8.5456073,1.4257158,0.020519607,-5.7187433,-0.011087549,0.007383476,0.0,1.3159747,-0.0036701648,-0.025040964,0.006993544,0.00035731617,-0.00067297206,-0.0008520037,-1.4892201,-0.031259928,0.011580995,1.6065406,-0.0006440282,488.11038,5.839874,0.4920797,0.4623281,0.17364024,0.13195316,inf,inf,inf,inf,1,1,1,1,2,0,2,1,3,1,1,1,0,0
130744000,130740000,904000,47.3977508,8.5456073,1.929611,0.02237186,-5.7185206,-0.011087549,0.007383476,0.0,0.45357174,-0.015517705,-0.041655608,-0.009884338,0.00035731617,-0.00067297206,-0.0008520037,-1.9644276,-0.034501612,-0.0095115965,1.6064329,-0.0006440282,488.11038,5.839651,0.46074462,0.4575859,0.15987268,0.12826689,inf,inf,inf,inf,1,1,1,1,2,0,2,1,3,1,1,1,0,0
131240000,131236000,904000,47.3977508,8.5456073,1.9890732,0.027327932,-5.729051,-0.011087549,0.007383476,0.0,-0.49574706,-0.018145485,-0.049900025,-0.019700926,0.00035731617,-0.00067297206,-0.0008520037,-1.9472047,-0.026906796,0.018075107,1.606704,-0.0006440282,488.11038,5.8501816,0.47032464,0.4574204,0.1644852,0.1291871,inf,inf,inf,inf,1,1,1,1,2,0,2,1,3,1,1,1,0,0
131744000,131740000,904000,47.3977508,8.5456073,1.5704625,0.033409312,-5.7318335,-0.011087549,0.007383476,0.0,-1.3610694,-0.02418926,-0.032641675,-8.496817e-05,0.00035731617,-0.00067297206,-0.0008520037,-1.4844674,-0.04278948,0.009234062,1.607442,-0.0006440282,488.11038,5.852964,0.48109725,0.46184435,0.17034698,0.13067585,inf,inf,inf,inf,1,1,1,1,2,0,2,1,3,1,1,1,0,0
132240000,132236000,904000,47.3977508,8.5456073,0.78182244,0.033948768,-5.727341,-0.011087549,0.007383476,0.0,-1.9058213,-0.029082157,-0.022017473,0.011716618,0.00035731617,-0.00067297206,-0.0008520037,-0.6798855,-0.013946889,-0.01268275,1.6075754,-0.0006440282,488.11038,5.8484716,0.49153104,0.46161142,0.17528793,0.13148986,inf,inf,inf,inf,1,1,1,1,2,0,2,1,3,1,1,1,0,0
132744000,132740000,904000,47.3977508,8.5456073,-0.21074957,0.03895372,-5.718631,-0.011087549,0.007383476,0.0,-2.0018513,-0.029156765,-0.028244035,0.007665469,0.00035731617,-0.00067297206,-0.0008520037,0.34035,-0.008631031,0.005948357,1.6075739,-0.0006440282,488.11038,5.8397613,0.46046713,0.45682862,0.16176215,0.12780795,inf,inf,inf,inf,1,1,1,1,2,0,2,1,3,1,1,1,0,0
133240000,133236000,904000,47.3977508,8.5456073,-1.1236445,0.04790228,-5.718171,-0.011087549,0.007383476,0.0,-1.6025106,-0.035720028,-0.035401713,-0.0007451506,0.00035731617,-0.00067297206,-0.0008520037,1.2474142,-0.0535681,-0.002613291,1.6072563,-0.0006440282,488.11038,5.8393016,0.47007447,0.46051085,0.16444965,0.1294815,inf,inf,inf,inf,1,1,1,1,2,0,2,1,3,1,1,1,0,0
133744000,133740000,904000,47.3977508,8.5456073,-1.7604746,0.058705512,-5.733696,-0.011087549,0.007383476,0.0,-0.81370986,-0.037374303,-0.040676057,-0.017701948,0.00035731617,-0.00067297206,-0.0008520037,1.8332134,-0.060909774,0.02014078,1.6066312,-0.0006440282,488.11038,5.8548265,0.48101783,0.4609236,0.16840203,0.13072143,inf,inf,inf,inf,1,1,1,1,2,0,2,1,3,1,1,1,0,0
134240000,134236000,904000,47.3977508,8.5456073,-1.9509797,0.0672282,-5.754746,-0.011087549,0.007383476,0.0,0.14499405,-0.043882623,-0.034755155,-0.022001645,0.00035731617,-0.00067297206,-0.0008520037,1.9630332,-0.06633237,0.047624107,1.6062889,-0.0006440282,488.11038,5.8758764,0.4916026,0.4647163,0.17400192,0.13217922,inf,inf,inf,inf,1,1,1,1,2,0,2,1,3,1,1,1,0,0
134744000,134740000,904000,47.3977508,8.5456073,-1.6443757,0.0625472,-5.764542,-0.011087549,0.007383476,0.0,1.0734761,-0.05041606,-0.0132566765,-0.0039856373,0.00035731617,-0.00067297206,-0.0008520037,1.6409779,-0.016823366,0.061193477,1.6064718,-0.0006440282,488.11038,5.8856726,0.46048468,0.45590183,0.16341588,0.12770574,inf,inf,inf,inf,1,1,1,1,2,0,2,1,3,1,1,1,0,0
135240000,135236000,904000,47.3977508,8.5456073,-0.94655913,0.06596552,-5.775215,-0.011087549,0.007383476,0.0,1.7144834,-0.04731462,0.01445295,0.012145444,0.00035731617,-0.00067297206,-0.0008520037,0.9295473,-0.024256267,0.04355702,1.6066763,-0.0006440282,488.11038,5.8963456,0.47020337,0.45966867,0.16889754,0.1291143,inf,inf,inf,inf,1,1,1,1,2,0,2,1,3,1,1,1,0,0
135744000,135740000,904000,47.3977508,8.5456073,0.0058266106,0.06336112,-5.7733493,-0.011087549,0.007383476,0.0,1.9458852,-0.04782611,0.02694925,0.019085934,0.00035731617,-0.00067297206,-0.0008520037,-0.03343739,-0.03299641,0.012396834,1.6065089,-0.0006440282,488.11038,5.8944798,0.48133904,0.46024442,0.17294915,0.13031988,inf,inf,inf,inf,1,1,1,1,2,0,2,1,3,1,1,1,0,0
136240000,136236000,904000,47.3977508,8.5456073,0.9398607,0.052696925,-5.767797,-0.011087549,0.007383476,0.0,1.6828206,-0.04683409,0.026701948,0.017075853,0.00035731617,-0.00067297206,-0.0008520037,-1.0749454,-0.019565573,-0.028785316,1.60639,-0.0006440282,488.11038,5.8889275,0.49209583,0.4641372,0.1750207,0.13203284,inf,inf,inf,inf,1,1,1,1,2,0,2,1,3,1,1,1,0,0
136744000,136740000,904000,47.3977508,8.5456073,1.6609945,0.049057808,-5.759558,-0.011087549,0.007383476,0.0,0.9909768,-0.04063123,0.016085776,0.0080926735,0.00035731617,-0.00067297206,-0.0008520037,-1.7429677,-0.024232022,-0.03914814,1.6064886,-0.0006440282,488.11038,5.8806887,0.46083325,0.45554844,0.16031426,0.12793897,inf,inf,inf,inf,1,1,1,1,2,0,2,1,3,1,1,1,0,0
137240000,137236000,904000,47.3977508,8.5456073,1.9701287,0.055819996,-5.7651734,-0.011087549,0.007383476,0.0,0.07536968,-0.033584025,-0.005829308,-0.015904482,0.00035731617,-0.00067297206,-0.0008520037,-1.9419312,-0.014889679,0.0047497447,1.6067464,-0.0006440282,488.11038,5.886304,0.47059283,0.45555875,0.16400863,0.12901358,inf,inf,inf,inf,1,1,1,1,2,0,2,1,3,1,1,1,0,0
137744000,137740000,904000,47.3977508,8.5456073,1.8056254,0.064052485,-5.770584,-0.011087549,0.007383476,0.0,-0.8744195,-0.03492622,0.0026480572,-0.005351497,0.00035731617,-0.00067297206,-0.0008520037,-1.8177329,-0.0059511364,0.030375084,1.6070293,-0.0006440282,488.11038,5.8917146,0.48138252,0.4602033,0.16943315,0.13060431,inf,inf,inf,inf,1,1,1,1,2,0,2,1,3,1,1,1,0,0
138240000,138236000,904000,47.3977508,8.5456073,1.2029374,0.06660426,-5.774307,-0.011087549,0.007383476,0.0,-1.6126678,-0.04204813,0.018235203,0.006860976,0.00035731617,-0.00067297206,-0.0008520037,-1.1705726,-0.056403685,0.018455086,1.6073859,-0.0006440282,488.11038,5.8954372,0.49176162,0.4603042,0.17482203,0.13144036,inf,inf,inf,inf,1,1,1,1,2,0,2,1,3,1,1,1,0,0
138744000,138740000,904000,47.3977508,8.5456073,0.28863162,0.06881508,-5.7762566,-0.011087549,0.007383476,0.0,-1.9659615,-0.046953578,0.028995248,0.011001127,0.00035731617,-0.00067297206,-0.0008520037,-0.24820583,-0.040913742,0.04473142,1.6076179,-0.0006440282,488.11038,5.897387,0.4607407,0.45575988,0.16213304,0.12771888,inf,inf,inf,inf,1,1,1,1,2,0,2,1,3,1,1,1,0,0
139240000,139236000,904000,47.3977508,8.5456073,-0.6736858,0.07134643,-5.7844462,-0.011087549,0.007383476,0.0,-1.8335161,-0.05067247,0.031606607,0.0031334562,0.00035731617,-0.00067297206,-0.0008520037,0.7197071,-0.02165153,0.0097742295,1.6073768,-0.0006440282,488.11038,5.9055767,0.47028685,0.45587742,0.16504504,0.12889582,inf,inf,inf,inf,1,1,1,1,2,0,2,1,3,1,1,1,0,0
139744000,139740000,904000,47.3977508,8.5456073,-1.4819953,0.06959512,-5.7948565,-0.011087549,0.007383476,0.0,-1.2456915,-0.051011946,0.03219341,-0.0055503366,0.00035731617,-0.00067297206,-0.0008520037,1.5604653,-0.020868288,0.023772938,1.6071509,-0.0006440282,488.11038,5.915987,0.4811902,0.4605337,0.16834468,0.13078697,inf,inf,inf,inf,1,1,1,1,2,0,2,1,3,1,1,1,0,0
140240000,140236000,904000,47.3977508,8.5456073,-1.9219607,0.06344882,-5.816759,-0.011087549,0.007383476,0.0,-0.3740134,-0.052160703,0.03354292,-0.018533435,0.00035731617,-0.00067297206,-0.0008520037,1.9620174,-0.0057724244,0.038413327,1.6067826,-0.0006440282,488.11038,5.9378896,0.4917306,0.46445873,0.1728562,0.13235159,inf,inf,inf,inf,1,1,1,1,2,0,2,1,3,1,1,1,0,0
140744000,140740000,904000,47.3977508,8.5456073,-1.9020795,0.060644392,-5.8351097,-0.011087549,0.007383476,0.0,0.60014105,-0.04980127,0.05201376,-0.0077302037,0.00035731617,-0.00067297206,-0.0008520037,1.9130352,-0.006001777,0.06409827,1.6065484,-0.0006440282,488.11038,5.95624,0.46057582,0.45570084,0.16213037,0.12790108,inf,inf,inf,inf,1,1,1,1,2,0,2,1,3,1,1,1,0,0
141240000,141236000,904000,47.3977508,8.5456073,-1.4326206,0.05909984,-5.8465643,-0.011087549,0.007383476,0.0,1.4185205,-0.047834914,0.07165051,0.0034125354,0.00035731617,-0.00067297206,-0.0008520037,1.3809047,-0.008224174,0.060101036,1.6067742,-0.0006440282,488.11038,5.9676948,0.47024435,0.459413,0.1682824,0.12921926,inf,inf,inf,inf,1,1,1,1,2,0,2,1,3,1,1,1,0,0
141744000,141740000,904000,47.3977508,8.5456073,-0.5979976,0.058787905,-5.850257,-0.011087549,0.007383476,0.0,1.9093677,-0.044770483,0.09247549,0.016709605,0.00035731617,-0.00067297206,-0.0008520037,0.55207926,-0.017690225,0.084644176,1.6066799,-0.0006440282,488.11038,5.9713874,0.48133662,0.45998344,0.17353523,0.13026203,inf,inf,inf,inf,1,1,1,1,2,0,2,1,3,1,1,1,0,0
142240000,142236000,904000,47.3977508,8.5456073,0.3661115,0.054699097,-5.8342357,-0.011087549,0.007383476,0.0,1.9276849,-0.04584884,0.091535576,0.023089848,0.00035731617,-0.00067297206,-0.0008520037,-0.4645664,-0.035752017,-0.023482366,1.6066369,-0.0006440282,488.11038,5.955366,0.49211684,0.46374843,0.1764335,0.13181579,inf,inf,inf,inf,1,1,1,1,2,0,2,1,3,1,1,1,0,0
142744000,142740000,904000,47.3977508,8.5456073,1.2454689,0.056605995,-5.823623,-0.011087549,0.007383476,0.0,1.4614522,-0.041731343,0.08403434,0.018337242,0.00035731617,-0.00067297206,-0.0008520037,-1.3309405,-0.034977462,-0.00039115545,1.6062583,-0.0006440282,488.11038,5.9447536,0.46071747,0.45869845,0.16115285,0.12814775,inf,inf,inf,inf,1,1,1,1,2,0,2,1,3,1,1,1,0,0
143240000,143236000,904000,47.3977508,8.5456073,1.8020017,0.056986626,-5.8181577,-0.011087549,0.007383476,0.0,0.6555172,-0.041393097,0.064928345,0.0012502118,0.00035731617,-0.00067297206,-0.0008520037,-1.907474,-0.014411023,-0.02572499,1.6064636,-0.0006440282,488.11038,5.939288,0.47054672,0.458537,0.16391751,0.12926823,inf,inf,inf,inf,1,1,1,1,2,0,2,1,3,1,1,1,0,0
143744000,143740000,904000,47.3977508,8.5456073,1.9073068,0.0564931,-5.816594,-0.011087549,0.007383476,0.0,-0.3232465,-0.040273625,0.038149808,-0.018297289,0.00035731617,-0.00067297206,-0.0008520037,-1.9460715,-0.033142347,-0.025803221,1.6067358,-0.0006440282,488.11038,5.9377246,0.4813906,0.45905358,0.16863985,0.13037646,inf,inf,inf,inf,1,1,1,1,2,0,2,1,3,1,1,1,0,0
144240000,144236000,904000,47.3977508,8.5456073,1.550221,0.05752534,-5.8142867,-0.011087549,0.007383476,0.0,-1.1944505,-0.041247845,0.04613466,-0.0019474432,0.00035731617,-0.00067297206,-0.0008520037,-1.5555924,-0.037493546,0.039565373,1.6073513,-0.0006440282,488.11038,5.935417,0.49176058,0.46286908,0.17406198,0.13174286,inf,inf,inf,inf,1,1,1,1,2,0,2,1,3,1,1,1,0,0
144744000,144740000,904000,47.3977508,8.5456073,0.8046186,0.0531997,-5.8065395,-0.011087549,0.007383476,0.0,-1.7931975,-0.0461693,0.054164927,0.011887554,0.00035731617,-0.00067297206,-0.0008520037,-0.81785727,-5.465699e-05,-0.015089287,1.6076245,-0.0006440282,488.11038,5.92767,0.46055615,0.45420814,0.16207106,0.12737057,inf,inf,inf,inf,1,1,1,1,2,0,2,1,3,1,1,1,0,0
145240000,145236000,904000,47.3977508,8.5456073,-0.13566183,0.053911336,-5.786835,-0.011087549,0.007383476,0.0,-1.950503,-0.046441764,0.039854735,0.010193822,0.00035731617,-0.00067297206,-0.0008520037,0.16222599,-0.04754099,-0.08262693,1.6075232,-0.0006440282,488.11038,5.9079657,0.4700709,0.45795333,0.16572751,0.12895893,inf,inf,inf,inf,1,1,1,1,2,0,2,1,3,1,1,1,0,0
145744000,145740000,904000,47.3977508,8.5456073,-1.0641758,0.052931003,-5.776048,-0.011087549,0.007383476,0.0,-1.612576,-0.042591386,0.030469406,0.0074951635,0.00035731617,-0.00067297206,-0.0008520037,1.1281668,0.015019889,0.043378208,1.6073123,-0.0006440282,488.11038,5.8971786,0.4811007,0.4586643,0.16898935,0.13034952,inf,inf,inf,inf,1,1,1,1,2,0,2,1,3,1,1,1,0,0
146240000,146236000,904000,47.3977508,8.5456073,-1.7101,0.04829422,-5.765572,-0.011087549,0.007383476,0.0,-0.8852978,-0.038189445,0.0052838684,-0.009275451,0.00035731617,-0.00067297206,-0.0008520037,1.7735441,-0.009798924,-0.033868473,1.6069506,-0.0006440282,488.11038,5.8867025,0.49179533,0.46263435,0.17266509,0.13204096,inf,inf,inf,inf,1,1,1,1,2,0,2,1,3,1,1,1,0,0
146744000,146740000,904000,47.3977508,8.5456073,-1.9474486,0.03964152,-5.780631,-0.011087549,0.007383476,0.0,0.060282897,-0.036258243,-0.010542613,-0.029661797,0.00035731617,-0.00067297206,-0.0008520037,1.9318104,-0.029048197,0.03810506,1.6069878,-0.0006440282,488.11038,5.9017615,0.46060988,0.45401916,0.16122682,0.12772518,inf,inf,inf,inf,1,1,1,1,2,0,2,1,3,1,1,1,0,0
147240000,147236000,904000,47.3977508,8.5456073,-1.7146493,0.029288411,-5.7900815,-0.011087549,0.007383476,0.0,0.97440434,-0.030437693,0.0037984576,-0.014301718,0.00035731617,-0.00067297206,-0.0008520037,1.6668502,0.0023595928,0.067263834,1.6068088,-0.0006440282,488.11038,5.911212,0.47039482,0.45778236,0.16740692,0.12911034,inf,inf,inf,inf,1,1,1,1,2,0,2,1,3,1,1,1,0,0
147744000,147740000,904000,47.3977508,8.5456073,-1.0504031,0.01944201,-5.785571,-0.011087549,0.007383476,0.0,1.665296,-0.024392398,0.020904198,0.008185409,0.00035731617,-0.00067297206,-0.0008520037,1.0293207,-0.02610561,0.036734153,1.606431,-0.0006440282,488.11038,5.9067016,0.48158514,0.46234894,0.173587,0.13066474,inf,inf,inf,inf,1,1,1,1,2,0,2,1,3,1,1,1,0,0
148240000,148236000,904000,47.3977508,8.5456073,-0.14564562,0.0073663583,-5.766458,-0.011087549,0.007383476,0.0,1.950465,-0.018623322,0.019498417,0.017830586,0.00035731617,-0.00067297206,-0.0008520037,0.12366566,0.039932854,-0.024409963,1.6065849,-0.0006440282,488.11038,5.8875885,0.49237782,0.46211007,0.1776331,0.13157533,inf,inf,inf,inf,1,1,1,1,2,0,2,1,3,1,1,1,0,0
148744000,148740000,904000,47.3977508,8.5456073,0.81786853,-0.0069219517,-5.7383976,-0.011087549,0.007383476,0.0,1.7514383,-0.008466495,0.0062381155,0.021489587,0.00035731617,-0.00067297206,-0.0008520037,-0.9462032,-0.00713671,0.011918134,1.6063628,-0.0006440282,488.11038,5.859528,0.4609546,0.4573325,0.16255173,0.12797235,inf,inf,inf,inf,1,1,1,1,2,0,2,1,3,1,1,1,0,0
149240000,149236000,904000,47.3977508,8.5456073,1.5744193,-0.009351971,-5.713545,-0.011087549,0.007383476,0.0,1.1227736,0.0056028175,-0.019170277,0.010970253,0.00035731617,-0.00067297206,-0.0008520037,-1.6449608,0.015448894,-0.101086676,1.6065537,-0.0006440282,488.11038,5.8346753,0.47083098,0.45730475,0.16480768,0.12916692,inf,inf,inf,inf,1,1,1,1,2,0,2,1,3,1,1,1,0,0
149744000,149740000,904000,47.3977508,8.5456073,1.9403118,-0.00953886,-5.7036695,-0.011087549,0.007383476,0.0,0.2028953,0.01346678,-0.060528398,-0.020215247,0.00035731617,-0.00067297206,-0.0008520037,-2.0032437,0.019753976,-0.11453125,1.6068772,-0.0006440282,488.11038,5.8248,0.48174188,0.45795605,0.16861124,0.13036771,inf,inf,inf,inf,1,1,1,1,2,0,2,1,3,1,1,1,0,0
150240000,150236000,904000,47.3977508,8.5456073,1.8267342,-0.011004912,-5.710739,-0.011087549,0.007383476,0.0,-0.7408433,0.01423427,-0.064681664,-0.021817707,0.00035731617,-0.00067297206,-0.0008520037,-1.8399769,-0.009412847,0.028973443,1.6074255,-0.0006440282,488.11038,5.8318696,0.4921254,0.46188277,0.17360209,0.13177231,inf,inf,inf,inf,1,1,1,1,2,0,2,1,3,1,1,1,0,0
150744000,150740000,904000,47.3977508,8.5456073,1.2581799,-0.0075620846,-5.7134557,-0.011087549,0.007383476,0.0,-1.5213177,0.01854259,-0.04850329,-0.005024883,0.00035731617,-0.00067297206,-0.0008520037,-1.2280891,0.00039905714,0.016502103,1.6078856,-0.0006440282,488.11038,5.834586,0.46089417,0.4571684,0.16200808,0.12787162,inf,inf,inf,inf,1,1,1,1,2,0,2,1,3,1,1,1,0,0
151240000,151236000,904000,47.3977508,8.5456073,0.39000046,-0.010952048,-5.7212467,-0.011087549,0.007383476,0.0,-1.9211304,0.015141515,-0.032277994,0.0025769882,0.00035731617,-0.00067297206,-0.0008520037,-0.36223295,-0.016417485,0.025170853,1.6081756,-0.0006440282,488.11038,5.842377,0.4703659,0.4570933,0.16617654,0.12884466,inf,inf,inf,inf,1,1,1,1,2,0,2,1,3,1,1,1,0,0
151744000,151740000,904000,47.3977508,8.5456073,-0.59489757,-0.019648202,-5.719228,-0.011087549,0.007383476,0.0,-1.8518822,0.015337535,-0.031736244,0.0024213349,0.00035731617,-0.00067297206,-0.0008520037,0.65242976,0.029296612,-0.022254882,1.6079885,-0.0006440282,488.11038,5.8403583,0.4812119,0.46176678,0.16958502,0.13070892,inf,inf,inf,inf,1,1,1,1,2,0,2,1,3,1,1,1,0,0
152240000,152236000,904000,47.3977508,8.5456073,-1.4257259,-0.02156934,-5.7149987,-0.011087549,0.007383476,0.0,-1.3218504,0.023814341,-0.0369073,-0.00038987328,0.00035731617,-0.00067297206,-0.0008520037,1.4560772,0.016275836,-0.07767695,1.6075459,-0.0006440282,488.11038,5.836129,0.4917319,0.46169615,0.17254227,0.13185336,inf,inf,inf,inf,1,1,1,1,2,0,2,1,3,1,1,1,0,0
152744000,152740000,904000,47.3977508,8.5456073,-1.9178303,-0.019161683,-5.720638,-0.011087549,0.007383476,0.0,-0.46132058,0.03052254,-0.056735687,-0.021512605,0.00035731617,-0.00067297206,-0.0008520037,1.9217904,-0.013281576,-0.018876044,1.6071162,-0.0006440282,488.11038,5.8417683,0.46048045,0.45686197,0.16026981,0.12810709,inf,inf,inf,inf,1,1,1,1,2,0,2,1,3,1,1,1,0,0
153240000,153236000,904000,47.3977508,8.5456073,-1.9497449,-0.024137158,-5.7299404,-0.011087549,0.007383476,0.0,0.49003115,0.030667737,-0.05503186,-0.017860629,0.00035731617,-0.00067297206,-0.0008520037,1.93106,0.0251577,-0.0017900019,1.6066233,-0.0006440282,488.11038,5.851071,0.47012362,0.45672742,0.16605154,0.1290071,inf,inf,inf,inf,1,1,1,1,2,0,2,1,3,1,1,1,0,0
153744000,153740000,904000,47.3977508,8.5456073,-1.5030369,-0.03912318,-5.732305,-0.011087549,0.007383476,0.0,1.3429034,0.032125384,-0.038822554,1.7378945e-05,0.00035731617,-0.00067297206,-0.0008520037,1.4105487,0.04285862,-0.015228986,1.6064126,-0.0006440282,488.11038,5.8534355,0.48113033,0.46130595,0.17270444,0.13052888,inf,inf,inf,inf,1,1,1,1,2,0,2,1,3,1,1,1,0,0
154240000,154236000,904000,47.3977508,8.5456073,-0.7009713,-0.05457113,-5.73484,-0.011087549,0.007383476,0.0,1.8612657,0.042263158,-0.022895953,0.009940204,0.00035731617,-0.00067297206,-0.0008520037,0.6427031,0.05058423,0.032848675,1.6063637,-0.0006440282,488.11038,5.8559704,0.49190092,0.46513945,0.17784385,0.13192219,inf,inf,inf,inf,1,1,1,1,2,0,2,1,3,1,1,1,0,0
154744000,154740000,904000,47.3977508,8.5456073,0.28516465,-0.057404142,-5.725274,-0.011087549,0.007383476,0.0,1.9332621,0.05470021,-0.021837603,0.01259012,0.00035731617,-0.00067297206,-0.0008520037,-0.3516205,0.026557943,-0.015981494,1.6061078,-0.0006440282,488.11038,5.8464046,0.46054778,0.45634383,0.16335939,0.12770118,inf,inf,inf,inf,1,1,1,1,2,0,2,1,3,1,1,1,0,0
155240000,155236000,904000,47.3977508,8.5456073,1.196861,-0.055068925,-5.7222333,-0.011087549,0.007383476,0.0,1.5248137,0.059890654,-0.02036194,0.011553785,0.00035731617,-0.00067297206,-0.0008520037,-1.2972766,0.03059102,-0.01861993,1.6060488,-0.0006440282,488.11038,5.843364,0.47035837,0.45639706,0.16541682,0.1289442,inf,inf,inf,inf,1,1,1,1,2,0,2,1,3,1,1,1,0,0
155744000,155740000,904000,47.3977508,8.5456073,1.8167342,-0.047652546,-5.723217,-0.011087549,0.007383476,0.0,0.72452796,0.060189765,-0.032165337,-0.0039002642,0.00035731617,-0.00067297206,-0.0008520037,-1.8737562,-0.024869295,-0.04830304,1.6062868,-0.0006440282,488.11038,5.8443475,0.4813589,0.45724902,0.16830859,0.13030612,inf,inf,inf,inf,1,1,1,1,2,0,2,1,3,1,1,1,0,0
156240000,156236000,904000,47.3977508,8.5456073,1.9809753,-0.03961046,-5.729506,-0.011087549,0.007383476,0.0,-0.2335865,0.058548424,-0.045792162,-0.017518904,0.00035731617,-0.00067297206,-0.0008520037,-1.9829712,0.019178841,0.019856727,1.6066306,-0.0006440282,488.11038,5.8506365,0.49193412,0.461315,0.17267047,0.1318512,inf,inf,inf,inf,1,1,1,1,2,0,2,1,3,1,1,1,0,0
156744000,156740000,904000,47.3977508,8.5456073,1.6695306,-0.029756023,-5.7452765,-0.011087549,0.007383476,0.0,-1.1445053,0.052798875,-0.025906973,-0.0057870043,0.00035731617,-0.00067297206,-0.0008520037,-1.656183,0.007931681,0.08966959,1.6072458,-0.0006440282,488.11038,5.866407,0.46078238,0.4529217,0.1612884,0.12745877,inf,inf,inf,inf,1,1,1,1,2,0,2,1,3,1,1,1,0,0
157240000,157236000,904000,47.3977508,8.5456073,0.97523284,-0.015550627,-5.743092,-0.011087549,0.007383476,0.0,-1.7762038,0.046225913,-0.012746596,0.008299835,0.00035731617,-0.00067297206,-0.0008520037,-0.9030808,-0.039000817,-0.017986631,1.6078987,-0.0006440282,488.11038,5.8642225,0.4702433,0.4569519,0.16617283,0.12890954,inf,inf,inf,inf,1,1,1,1,2,0,2,1,3,1,1,1,0,0
157744000,157740000,904000,47.3977508,8.5456073,0.02855693,-0.006357967,-5.7406836,-0.011087549,0.007383476,0.0,-1.9962347,0.036970127,-0.008729399,0.009948114,0.00035731617,-0.00067297206,-0.0008520037,0.030697554,0.014049306,0.0024391336,1.6079024,-0.0006440282,488.11038,5.861814,0.48106205,0.46170434,0.17029685,0.13065816,inf,inf,inf,inf,1,1,1,1,2,0,2,1,3,1,1,1,0,0
158240000,158236000,904000,47.3977508,8.5456073,-0.90704256,-0.006819476,-5.736656,-0.011087549,0.007383476,0.0,-1.728497,0.03063161,-0.018414792,0.0013307654,0.00035731617,-0.00067297206,-0.0008520037,1.0494915,0.031451184,-0.032805834,1.6076566,-0.0006440282,488.11038,5.8577867,0.4915841,0.4616583,0.17317231,0.1317603,inf,inf,inf,inf,1,1,1,1,2,0,2,1,3,1,1,1,0,0
158744000,158740000,904000,47.3977508,8.5456073,-1.6236817,-0.010665101,-5.7385483,-0.011087549,0.007383476,0.0,-1.033278,0.030722288,-0.024959957,-0.006610805,0.00035731617,-0.00067297206,-0.0008520037,1.7169528,0.020259306,-0.016875563,1.6071857,-0.0006440282,488.11038,5.8596787,0.46038473,0.45683336,0.15987866,0.12807594,inf,inf,inf,inf,1,1,1,1,2,0,2,1,3,1,1,1,0,0
159240000,159236000,904000,47.3977508,8.5456073,-1.9333457,-0.023240678,-5.7511454,-0.011087549,0.007383476,0.0,-0.11338876,0.02886571,-0.041714862,-0.027196297,0.00035731617,-0.00067297206,-0.0008520037,1.9377927,0.042155877,0.02973806,1.6067164,-0.0006440282,488.11038,5.872276,0.47002682,0.46051356,0.1647787,0.12955965,inf,inf,inf,inf,1,1,1,1,2,0,2,1,3,1,1,1,0,0
159744000,159740000,904000,47.3977508,8.5456073,-1.7612718,-0.030119881,-5.757087,-0.011087549,0.007383476,0.0,0.8364982,0.03773091,-0.025835462,-0.007209266,0.00035731617,-0.00067297206,-0.0008520037,1.7332621,0.04534103,0.01448579,1.6065165,-0.0006440282,488.11038,5.8782177,0.4810149,0.46101654,0.17136283,0.13054982,inf,inf,inf,inf,1,1,1,1,2,0,2,1,3,1,1,1,0,0
160240000,160236000,904000,47.3977508,8.5456073,-1.1514695,-0.037269164,-5.7533627,-0.011087549,0.007383476,0.0,1.5669646,0.035612117,-0.013783583,0.007422226,0.00035731617,-0.00067297206,-0.0008520037,1.0863374,0.02104639,-0.002983026,1.6061856,-0.0006440282,488.11038,5.874493,0.49186265,0.46488148,0.17754114,0.1319209,inf,inf,inf,inf,1,1,1,1,2,0,2,1,3,1,1,1,0,0
160744000,160744000,904000,47.3977508,8.5456073,-0.22962213,-0.047894806,-5.741253,-0.011087549,0.007383476,0.0,1.9144342,0.03832931,-0.00950303,0.015939612,0.00035731617,-0.00067297206,-0.0008520037,0.2121895,0.013430384,-0.015590339,1.6060317,-0.0006440282,488.11038,5.8623834,0.46078926,0.4561126,0.16441244,0.1276302,inf,inf,inf,inf,1,1,1,1,2,0,2,1,3,1,1,1,0,0
161240000,161240000,904000,47.3977508,8.5456073,0.7229506,-0.048792552,-5.741289,-0.011087549,0.007383476,0.0,1.7759036,0.04795877,-0.0054768506,0.012900505,0.00035731617,-0.00067297206,-0.0008520037,-0.78742105,0.010177085,0.05586445,1.605891,-0.0006440282,488.11038,5.8624196,0.47073448,0.4599844,0.16690755,0.12932162,inf,inf,inf,inf,1,1,1,1,2,0,2,1,3,1,1,1,0,0
161744000,161744000,904000,47.3977508,8.5456073,1.5200557,-0.03647874,-5.735095,-0.011087549,0.007383476,0.0,1.1917987,0.047945764,-0.0053471597,0.011640048,0.00035731617,-0.00067297206,-0.0008520037,-1.5631479,-0.0039435104,-0.06500724,1.6059045,-0.0006440282,488.11038,5.8562255,0.48185545,0.46051747,0.16924363,0.1306603,inf,inf,inf,inf,1,1,1,1,2,0,2,1,3,1,1,1,0,0
162240000,162240000,904000,47.3977508,8.5456073,1.9481119,-0.027958259,-5.7258987,-0.011087549,0.007383476,0.0,0.3171171,0.04140745,-0.031242212,-0.006450654,0.00035731617,-0.00067297206,-0.0008520037,-1.9639055,-0.019678904,-0.10899081,1.6061164,-0.0006440282,488.11038,5.847029,0.4923737,0.46424544,0.17245919,0.13220815,inf,inf,inf,inf,1,1,1,1,2,0,2,1,3,1,1,1,0,0
162744000,162744000,904000,47.3977508,8.5456073,1.9066232,-0.018896425,-5.712571,-0.011087549,0.007383476,0.0,-0.6568311,0.03158667,-0.058750417,-0.014757228,0.00035731617,-0.00067297206,-0.0008520037,-1.8846265,-0.023446059,-0.006346963,1.6067519,-0.0006440282,488.11038,5.8337016,0.46098557,0.4554297,0.16064355,0.12778085,inf,inf,inf,inf,1,1,1,1,2,0,2,1,3,1,1,1,0,0
163240000,163240000,904000,47.3977508,8.5456073,1.4217507,-0.009234231,-5.7012663,-0.011087549,0.007383476,0.0,-1.4606578,0.027014319,-0.059370417,-0.002269885,0.00035731617,-0.00067297206,-0.0008520037,-1.3674178,-0.022393156,-0.01135189,1.6072222,-0.0006440282,488.11038,5.8223968,0.4704498,0.45535,0.16584449,0.12864813,inf,inf,inf,inf,1,1,1,1,2,0,2,1,3,1,1,1,0,0
163744000,163744000,904000,47.3977508,8.5456073,0.57383454,0.009903549,-5.6988087,-0.011087549,0.007383476,0.0,-1.9352596,0.015779518,-0.04903385,0.0074238814,0.00035731617,-0.00067297206,-0.0008520037,-0.5331542,-0.02100697,-0.02607703,1.6073579,-0.0006440282,488.11038,5.819939,0.4813481,0.45997941,0.17077063,0.13031499,inf,inf,inf,inf,1,1,1,1,2,0,2,1,3,1,1,1,0,0
164240000,164240000,904000,47.3977508,8.5456073,-0.40669632,0.028533708,-5.6972184,-0.011087549,0.007383476,0.0,-1.9362057,0.0042232056,-0.054335836,-0.00034656737,0.00035731617,-0.00067297206,-0.0008520037,0.5226736,-0.08009718,-0.043860633,1.6070217,-0.0006440282,488.11038,5.818349,0.4919555,0.46399945,0.17411542,0.13197196,inf,inf,inf,inf,1,1,1,1,2,0,2,1,3,1,1,1,0,0
164744000,164744000,904000,47.3977508,8.5456073,-1.2916113,0.041524902,-5.700041,-0.011087549,0.007383476,0.0,-1.4532738,-0.009384231,-0.05827476,-0.006645341,0.00035731617,-0.00067297206,-0.0008520037,1.3671876,-0.03691991,-0.030670313,1.6068715,-0.0006440282,488.11038,5.8211713,0.4607239,0.45536768,0.16029866,0.12785716,inf,inf,inf,inf,1,1,1,1,2,0,2,1,3,1,1,1,0,0
165240000,165240000,904000,47.3977508,8.5456073,-1.838079,0.04409577,-5.7163167,-0.011087549,0.007383476,0.0,-0.63578683,-0.02314068,-0.06899862,-0.028468598,0.00035731617,-0.00067297206,-0.0008520037,1.8511479,-0.045151636,0.0048903744,1.6066573,-0.0006440282,488.11038,5.837447,0.4704479,0.45919293,0.16434795,0.12948787,inf,inf,inf,inf,1,1,1,1,2,0,2,1,3,1,1,1,0,0
165744000,165744000,904000,47.3977508,8.5456073,-1.9324872,0.044472765,-5.7381687,-0.011087549,0.007383476,0.0,0.3325414,-0.029695233,-0.053560823,-0.02118805,0.00035731617,-0.00067297206,-0.0008520037,1.9190164,-0.051829595,0.0063804905,1.6064277,-0.0006440282,488.11038,5.859299,0.48150456,0.45990455,0.17041664,0.1306134,inf,inf,inf,inf,1,1,1,1,2,0,2,1,3,1,1,1,0,0
166240000,166240000,904000,47.3977508,8.5456073,-1.5659747,0.04343055,-5.747765,-0.011087549,0.007383476,0.0,1.2023834,-0.031693235,-0.031516723,-0.0024706922,0.00035731617,-0.00067297206,-0.0008520037,1.5274597,-0.034711495,0.051431354,1.6062282,-0.0006440282,488.11038,5.8688955,0.49213478,0.4639021,0.17682508,0.13197626,inf,inf,inf,inf,1,1,1,1,2,0,2,1,3,1,1,1,0,0
166744000,166744000,904000,47.3977508,8.5456073,-0.799841,0.043026045,-5.747673,-0.011087549,0.007383476,0.0,1.7990632,-0.031905845,-0.009750946,0.015844898,0.00035731617,-0.00067297206,-0.0008520037,0.80353725,-0.018720035,0.02310518,1.6060463,-0.0006440282,488.11038,5.8688035,0.46070468,0.45511505,0.1644669,0.12753606,inf,inf,inf,inf,1,1,1,1,2,0,2,1,3,1,1,1,0,0
167240000,167240000,904000,47.3977508,8.5456073,0.15820852,0.042417932,-5.7398715,-0.011087549,0.007383476,0.0,1.9421091,-0.03489588,-0.0063181045,0.018181771,0.00035731617,-0.00067297206,-0.0008520037,-0.24284235,0.005120615,-0.036764886,1.6058546,-0.0006440282,488.11038,5.861002,0.47047532,0.458783,0.16784652,0.12908971,inf,inf,inf,inf,1,1,1,1,2,0,2,1,3,1,1,1,0,0
167744000,167744000,904000,47.3977508,8.5456073,1.0887923,0.038843796,-5.728092,-0.011087549,0.007383476,0.0,1.5926656,-0.034202866,-0.01114184,0.01685939,0.00035731617,-0.00067297206,-0.0008520037,-1.1574878,-0.0049444204,-0.027515924,1.6059874,-0.0006440282,488.11038,5.8492227,0.48157224,0.45930597,0.17028357,0.13041219,inf,inf,inf,inf,1,1,1,1,2,0,2,1,3,1,1,1,0,0
168240000,168240000,904000,47.3977508,8.5456073,1.7429025,0.040611476,-5.7201133,-0.011087549,0.007383476,0.0,0.8607279,-0.03286749,-0.030213745,0.00041017216,0.00035731617,-0.00067297206,-0.0008520037,-1.793843,-0.06039721,-0.06964709,1.6062068,-0.0006440282,488.11038,5.8412437,0.4921534,0.4630555,0.1726757,0.13203375,inf,inf,inf,inf,1,1,1,1,2,0,2,1,3,1,1,1,0,0
168744000,168744000,904000,47.3977508,8.5456073,1.9745827,0.043729708,-5.7273755,-0.011087549,0.007383476,0.0,-0.09522614,-0.036054485,-0.048607763,-0.01978624,0.00035731617,-0.00067297206,-0.0008520037,-1.9787453,-0.057653986,0.01558382,1.6063011,-0.0006440282,488.11038,5.848506,0.46090814,0.45803726,0.16005786,0.12818326,inf,inf,inf,inf,1,1,1,1,2,0,2,1,3,1,1,1,0,0
169240000,169240000,904000,47.3977508,8.5456073,1.7392119,0.056604236,-5.73352,-0.011087549,0.007383476,0.0,-1.003433,-0.03616555,-0.038358472,-0.008059491,0.00035731617,-0.00067297206,-0.0008520037,-1.6823928,-0.0349545,0.06140675,1.6066599,-0.0006440282,488.11038,5.8546505,0.47039783,0.45765018,0.16497424,0.12898834,inf,inf,inf,inf,1,1,1,1,2,0,2,1,3,1,1,1,0,0
169744000,169744000,904000,47.3977508,8.5456073,1.0677099,0.065020844,-5.7340903,-0.011087549,0.007383476,0.0,-1.692927,-0.04294672,-0.021908928,0.007688881,0.00035731617,-0.00067297206,-0.0008520037,-1.0194964,-0.06681643,0.00087823713,1.6068195,-0.0006440282,488.11038,5.855221,0.48126948,0.46207425,0.17044994,0.1305529,inf,inf,inf,inf,1,1,1,1,2,0,2,1,3,1,1,1,0,0
170240000,170240000,904000,47.3977508,8.5456073,0.1510039,0.070987925,-5.723654,-0.011087549,0.007383476,0.0,-1.9616749,-0.047369484,-0.021050958,0.012781427,0.00035731617,-0.00067297206,-0.0008520037,-0.051852256,-0.022228194,-0.055044886,1.606966,-0.0006440282,488.11038,5.8447843,0.4917049,0.4617815,0.17444813,0.13150276,inf,inf,inf,inf,1,1,1,1,2,0,2,1,3,1,1,1,0,0
170744000,170744000,904000,47.3977508,8.5456073,-0.82220167,0.083238274,-5.7160864,-0.011087549,0.007383476,0.0,-1.7548786,-0.050698217,-0.03918858,-0.0020313303,0.00035731617,-0.00067297206,-0.0008520037,0.9186141,-0.029619971,-0.036121342,1.6068461,-0.0006440282,488.11038,5.837217,0.46067694,0.45697874,0.16081426,0.12795018,inf,inf,inf,inf,1,1,1,1,2,0,2,1,3,1,1,1,0,0
171240000,171240000,904000,47.3977508,8.5456073,-1.5888327,0.08309703,-5.7152576,-0.011087549,0.007383476,0.0,-1.113096,-0.060175333,-0.0440846,-0.005481381,0.00035731617,-0.00067297206,-0.0008520037,1.6676724,-0.008052607,-0.053705644,1.6064966,-0.0006440282,488.11038,5.836388,0.47027826,0.45684448,0.16405089,0.12913743,inf,inf,inf,inf,1,1,1,1,2,0,2,1,3,1,1,1,0,0
171744000,171744000,904000,47.3977508,8.5456073,-1.9683782,0.06885145,-5.7266345,-0.011087549,0.007383476,0.0,-0.18777137,-0.059661087,-0.059563704,-0.024521746,0.00035731617,-0.00067297206,-0.0008520037,2.006886,0.003171808,-0.032635402,1.6061587,-0.0006440282,488.11038,5.847765,0.48120907,0.4613089,0.16926853,0.13086972,inf,inf,inf,inf,1,1,1,1,2,0,2,1,3,1,1,1,0,0
