timestamp,timestamp_sample,ref_timestamp,ref_lat,ref_lon,x,y,z,delta_xy[0],delta_xy[1],delta_z,vx,vy,vz,z_deriv,delta_vxy[0],delta_vxy[1],delta_vz,ax,ay,az,heading,delta_heading,ref_alt,dist_bottom,eph,epv,evh,evv,vxy_max,vz_max,hagl_min,hagl_max,xy_valid,z_valid,v_xy_valid,v_z_valid,xy_reset_counter,z_reset_counter,vxy_reset_counter,vz_reset_counter,heading_reset_counter,heading_good_for_control,xy_global,z_global,dist_bottom_valid,dist_bottom_sensor_bitfield
9232000,9232000,904000,47.3977508,8.5456073,-0.0025693993,0.0067511606,0.01226387,-0.00014175766,0.007439493,0.0,-0.0026011528,0.00084567774,-0.00090692245,-0.0019255985,-0.011515036,0.008892436,0.039197564,-0.020011982,-0.024505453,-0.028715467,1.620516,-0.00060892105,488.11032,0.100235015,0.42641333,0.29270253,0.013659427,0.009663187,inf,inf,inf,inf,1,1,1,1,2,0,2,1,2,0,1,1,1,0
9736000,9736000,904000,47.3977508,8.5456073,-0.0034743922,0.0072511244,0.011052919,-0.00014175766,0.007439493,0.0,-0.0023591442,0.00016537853,-0.0012294869,-0.0028630085,-0.011515036,0.008892436,0.039197564,-0.0033377,0.01422892,0.02012681,1.6179888,-0.00060892105,488.11032,0.10008538,0.40826607,0.2839092,0.019853218,0.014063333,inf,inf,inf,inf,1,1,1,1,2,0,2,1,2,0,1,1,1,0
10232000,10232000,904000,47.3977508,8.5456073,-0.0027534058,0.0077057676,0.0110130785,-0.00014175766,0.007439493,0.0,-0.0018595537,0.0025408117,-0.0020572925,-0.0028147656,-0.011515036,0.008892436,0.039197564,0.009563241,0.0076309657,-0.030841677,1.61776,-0.00060892105,488.11032,0.100868575,0.39224955,0.27672043,0.009968552,0.0070636244,inf,inf,inf,inf,1,1,1,1,2,0,2,1,2,0,1,1,1,0
10736000,10736000,904000,47.3977508,8.5456073,-0.0024083322,0.00728774,0.010026643,-0.00014175766,0.007439493,0.0,0.0011039223,0.00012244722,3.380282e-05,-0.00091642654,-0.011515036,0.008892436,0.039197564,0.007151407,0.010180039,0.009596347,1.6155728,-0.00060892105,488.11032,0.10067133,0.36516786,0.26925445,0.017140942,0.012196607,inf,inf,inf,inf,1,1,1,1,2,0,2,1,2,0,1,1,1,0
11232000,11232000,904000,47.3977508,8.5456073,-0.0018601604,0.006944713,0.011519464,-0.00014175766,0.007439493,0.0,0.00070082326,0.0020468018,-0.0011299322,-0.00033116865,-0.011515036,0.008892436,0.039197564,0.009210256,0.020237783,0.013371929,1.6141889,-0.00060892105,488.11032,0.1012159,0.3535751,0.263101,0.004216873,0.002983389,inf,inf,inf,inf,1,1,1,1,2,0,2,1,2,0,1,1,1,0
11736000,11736000,904000,47.3977508,8.5456073,-0.0023477778,0.0064872615,0.011763478,-0.00014175766,0.007439493,0.0,-0.00161291,1.0756716e-05,0.00032501476,0.0013997343,-0.011515036,0.008892436,0.039197564,-0.021927377,0.041839447,0.05149096,1.6134281,-0.00060892105,488.11032,0.100593135,0.34302205,0.2573519,0.014214861,0.0101178605,inf,inf,inf,inf,1,1,1,1,2,0,2,1,2,0,1,1,1,0
12240000,12240000,904000,47.3977508,8.5456073,-0.0022216148,0.00639311,0.011679114,-0.00014175766,0.007439493,0.0,-0.00019393858,0.001873554,0.0014545694,0.0012943118,-0.011515036,0.008892436,0.039197564,0.052038506,-0.0002742308,0.0059073786,1.6124972,-0.00060892105,488.11032,0.1,0.33336598,0.251317,0.020147009,0.014418039,inf,inf,inf,inf,1,1,1,1,2,0,2,1,2,0,1,1,1,0
12736000,12736000,904000,47.3977508,8.5456073,-0.0014688203,0.0063726585,0.011450431,-0.00014175766,0.007439493,0.0,0.0025332216,-0.00025492645,0.003527192,0.0024256937,-0.011515036,0.008892436,0.039197564,0.023467407,-0.009199807,0.019058583,1.6107237,-0.00060892105,488.11032,0.1,0.31662905,0.24656074,0.044359285,0.03197044,inf,inf,inf,inf,1,1,1,1,2,0,2,1,2,0,1,1,1,0
13232000,13232000,904000,47.3977508,8.5456073,0.00069756416,0.0067635733,0.012731698,-0.00014175766,0.007439493,0.0,0.006366323,-5.5256896e-05,0.008633235,0.006979433,-0.011515036,0.008892436,0.039197564,0.013311858,-0.016059319,0.019517725,1.6101483,-0.00060892105,488.11032,0.1,0.31102988,0.24325444,0.066059075,0.046922192,inf,inf,inf,inf,1,1,1,1,2,0,2,1,2,0,1,1,1,0
13736000,13736000,904000,47.3977508,8.5456073,0.004130027,0.0064006466,0.016696958,-0.00014175766,0.007439493,0.0,0.010334456,-0.00076191226,0.013734226,0.011452389,-0.011515036,0.008892436,0.039197564,0.051435117,0.011710552,0.007236376,1.6097658,-0.00060892105,488.11032,0.1,0.3097924,0.24221227,0.088199794,0.06122213,inf,inf,inf,inf,1,1,1,1,2,0,2,1,2,0,1,1,1,0
14240000,14240000,904000,47.3977508,8.5456073,0.008445579,0.005468712,0.020823222,-0.00014175766,0.007439493,0.0,0.0062121605,-0.0034669265,-0.0129018165,-0.01536738,-0.011515036,0.008892436,0.039197564,-0.046771817,-0.00096592697,-0.24246423,1.610374,-0.00060892105,488.11032,0.100001216,0.31542003,0.24612251,0.110551596,0.074839674,inf,inf,inf,inf,1,1,1,1,2,0,2,1,2,0,1,1,1,0
14736000,14736000,904000,47.3977508,8.5456073,-0.010951661,-0.010225264,-0.013213408,-0.00014175766,0.007439493,0.0,-0.11555775,-0.110577956,-0.13434768,-0.13657477,-0.011515036,0.008892436,0.039197564,-0.27839133,-0.27523106,-0.4093209,1.6196349,-0.00060892105,488.11032,0.13403785,0.3182465,0.25391817,0.12618986,0.08586555,inf,inf,inf,inf,1,1,1,1,2,0,2,1,2,0,1,1,1,0
15232000,15232000,904000,47.3977508,8.5456073,-0.080498055,-0.07127582,-0.13556945,-0.00014175766,0.007439493,0.0,-0.12012581,-0.11184544,-0.34695625,-0.3499696,-0.011515036,0.008892436,0.039197564,0.15981647,0.16303654,-0.35234818,1.6177589,-0.00060892105,488.11032,0.2563939,0.337327,0.2682884,0.14479648,0.097007185,inf,inf,inf,inf,1,1,1,1,2,0,2,1,2,0,1,1,1,0
15736000,15736000,904000,47.3977508,8.5456073,-0.13213488,-0.10902499,-0.35982555,-0.00014175766,0.007439493,0.0,-0.032508634,-0.0317574,-0.5217253,-0.5261433,-0.011515036,0.008892436,0.039197564,0.21215454,0.17113814,-0.33547822,1.6159682,-0.00060892105,488.11032,0.48065,0.3634607,0.28737217,0.1612585,0.10706,inf,inf,inf,inf,1,1,1,1,2,0,2,1,2,0,1,1,1,0
16240000,16240000,904000,47.3977508,8.5456073,-0.13792421,-0.10883993,-0.6639439,-0.00014175766,0.007439493,0.0,0.055313285,0.04527269,-0.654742,-0.66208243,-0.011515036,0.008892436,0.039197564,0.1484706,0.15809551,-0.20033772,1.6142086,-0.00060892105,488.11032,0.78476834,0.39391366,0.31134316,0.17506617,0.11584425,inf,inf,inf,inf,1,1,1,1,2,0,2,1,2,0,1,1,1,0
16736000,16736000,904000,47.3977508,8.5456073,-0.11527354,-0.08040558,-1.0199984,-0.00014175766,0.007439493,0.0,0.1014198,0.08694417,-0.7531961,-0.76185054,-0.011515036,0.008892436,0.039197564,0.05531401,0.050164655,-0.22494978,1.6140563,-0.00060892105,488.11032,1.1408229,0.39090106,0.3306558,0.16714793,0.118677214,inf,inf,inf,inf,1,1,1,1,2,0,2,1,2,0,1,1,1,0
17240000,17240000,904000,47.3977508,8.5456073,-0.08080404,-0.044910017,-1.4216338,-0.00014175766,0.007439493,0.0,0.11246711,0.09198548,-0.83641547,-0.8421142,-0.011515036,0.008892436,0.039197564,0.018937381,-0.0017974088,-0.14475639,1.613283,-0.00060892105,488.11032,1.5424583,0.41662827,0.35416397,0.1741385,0.12378803,inf,inf,inf,inf,1,1,1,1,2,0,2,1,2,0,1,1,0,0
17736000,17736000,904000,47.3977508,8.5456073,-0.04571737,-0.010972976,-1.8612448,-0.00014175766,0.007439493,0.0,0.102290615,0.07797081,-0.8967233,-0.90755385,-0.011515036,0.008892436,0.039197564,0.035971213,-0.033247225,-0.08893757,1.6084434,-0.0017392042,488.11032,1.9820693,0.4401427,0.37774333,0.17085879,0.12775868,inf,inf,inf,inf,1,1,1,1,2,0,2,1,3,0,1,1,0,0
18232000,18232000,904000,47.3977508,8.5456073,-0.005690783,0.02033211,-2.3312552,-0.00014175766,0.007439493,0.0,0.0870071,0.061428927,-0.9405649,-0.95812744,-0.011515036,0.008892436,0.039197564,-0.005731082,-0.005509151,-0.08140317,1.6093901,-0.0017392042,488.11032,2.4520795,0.46002862,0.39966595,0.19166481,0.13066798,inf,inf,inf,inf,1,1,1,1,2,0,2,1,3,0,1,1,0,0
18736000,18736000,904000,47.3977508,8.5456073,0.027402729,0.050956085,-2.8400078,-0.00014175766,0.007439493,0.0,0.060565144,0.038148075,-0.9652781,-0.99629396,-0.011515036,0.008892436,0.039197564,-0.08327206,-0.06696391,-0.06584729,1.610926,-0.0017392042,488.11032,2.960832,0.43922633,0.40630886,0.19907776,0.12700202,inf,inf,inf,inf,1,1,1,1,2,0,2,1,3,1,1,1,0,0
19232000,19232000,904000,47.3977508,8.5456073,0.052639663,0.07633732,-3.3439765,-0.00014175766,0.007439493,0.0,0.037853736,0.018620579,-0.9903884,-1.023481,-0.011515036,0.008892436,0.039197564,-0.019659214,-0.06482006,-0.05125161,1.6098512,-0.0017392042,488.11032,3.4648008,0.45364457,0.42276976,0.22370483,0.12844397,inf,inf,inf,inf,1,1,1,1,2,0,2,1,3,1,1,1,0,0
19736000,19736000,904000,47.3977508,8.5456073,0.06345812,0.09638023,-3.8765914,-0.00014175766,0.007439493,0.0,0.009026398,0.0015699385,-1.0082812,-1.050702,-0.011515036,0.008892436,0.039197564,-0.022146203,-0.06759088,0.04129484,1.6099674,-0.0017392042,488.11032,3.9974158,0.46992043,0.43452576,0.24114464,0.12907849,inf,inf,inf,inf,1,1,1,1,2,0,2,1,3,1,1,1,0,0
20232000,20232000,904000,47.3977508,8.5456073,0.056517936,0.099676326,-4.398626,-0.00014175766,0.007439493,0.0,-0.0070725116,-0.022055596,-1.0202334,-1.0600624,-0.011515036,0.008892436,0.039197564,-0.0012762028,-0.044420723,-0.0391677,1.6100315,-0.0017392042,488.11032,4.51945,0.48652455,0.44667557,0.25015646,0.13001266,inf,inf,inf,inf,1,1,1,1,2,0,2,1,3,1,1,1,0,0
20736000,20736000,904000,47.3977508,8.5456073,0.050302975,0.09473339,-4.941507,-0.00014175766,0.007439493,0.0,-0.008702932,-0.031028897,-1.0348788,-1.076947,-0.011515036,0.008892436,0.039197564,0.01741384,-0.020829596,-0.0044237818,1.6090686,-0.0017392042,488.11032,5.062331,0.45563942,0.44271153,0.21556114,0.12527679,inf,inf,inf,inf,1,1,1,1,2,0,2,1,3,1,1,1,0,0
21232000,21232000,904000,47.3977508,8.5456073,0.0387381,0.09542448,-5.474579,-0.00014175766,0.007439493,0.0,-0.009443804,-0.033037882,-1.029022,-1.0675844,-0.011515036,0.008892436,0.039197564,-0.017022058,-0.007774484,0.62092763,1.6094885,-0.0017392042,488.11032,5.595403,0.46894625,0.4514316,0.21718156,0.12632647,inf,inf,inf,inf,1,1,1,1,2,0,2,1,3,1,1,1,0,0
21736000,21736000,904000,47.3977508,8.5456073,0.02883086,0.086226024,-5.7592125,-0.00014175766,0.007439493,0.0,0.07711513,-0.0494455,-0.017712088,-0.06598587,-0.011515036,0.008892436,0.039197564,0.75493723,-0.0014261894,0.9507909,1.6095127,-0.0017392042,488.11032,5.880037,0.4836982,0.45573157,0.21465997,0.12699024,inf,inf,inf,inf,1,1,1,1,2,0,2,1,3,1,1,1,0,0
22232000,22232000,904000,47.3977508,8.5456073,0.17638367,0.065783314,-5.7792907,-0.00014175766,0.007439493,0.0,0.6207947,-0.042920116,-0.06705546,-0.112358026,-0.011515036,0.008892436,0.039197564,1.1275848,0.0139545,0.05039293,1.6075281,-0.0017392042,488.11032,5.900115,0.49763724,0.46198305,0.2153158,0.12820579,inf,inf,inf,inf,1,1,1,1,2,0,2,1,3,1,1,1,0,0
22736000,22736000,904000,47.3977508,8.5456073,0.5890103,0.0482422,-5.82299,-0.00014175766,0.007439493,0.0,1.0478144,-0.035815828,-0.0005056938,-0.04663574,-0.011515036,0.008892436,0.039197564,0.5237407,-0.0065674246,0.13502313,1.6084027,-0.0017392042,488.11032,5.9438143,0.4630603,0.45408276,0.18902859,0.12419542,inf,inf,inf,inf,1,1,1,1,2,0,2,1,3,1,1,1,0,0
23240000,23240000,904000,47.3977508,8.5456073,1.1615367,0.034105513,-5.832666,-0.00014175766,0.007439493,0.0,1.0930765,-0.026439747,0.036862575,-0.0062302873,-0.011515036,0.008892436,0.039197564,-0.4392974,-0.0075591085,0.08382368,1.6077896,-0.0017392042,488.11032,5.9534903,0.47565028,0.459728,0.18924217,0.12596528,inf,inf,inf,inf,1,1,1,1,2,0,2,1,3,1,1,1,0,0
23736000,23736000,904000,47.3977508,8.5456073,1.638785,0.021006165,-5.833423,-0.00014175766,0.007439493,0.0,0.6630413,-0.017007312,0.047920816,0.004285748,-0.011515036,0.008892436,0.039197564,-1.2928572,0.01497926,0.036024485,1.6075132,-0.0017392042,488.11032,5.9542475,0.48750815,0.46030405,0.18873662,0.1270572,inf,inf,inf,inf,1,1,1,1,2,0,2,1,3,1,1,1,0,0
24232000,24232000,904000,47.3977508,8.5456073,1.8285617,0.021454433,-5.8313937,-0.00014175766,0.007439493,0.0,-0.08838176,-0.006102416,0.04154118,-0.00041305192,-0.011515036,0.008892436,0.039197564,-1.7336442,-0.021862622,0.00423938,1.6081284,-0.0017392042,488.11032,5.952218,0.49943414,0.46451,0.19098067,0.1287606,inf,inf,inf,inf,1,1,1,1,2,0,2,1,3,1,1,1,0,0
24736000,24736000,904000,47.3977508,8.5456073,1.616251,0.031192528,-5.828861,-0.00014175766,0.007439493,0.0,-0.93494815,-0.0043134675,0.043049008,0.0038110993,-0.011515036,0.008892436,0.039197564,-1.6916034,-0.025641754,0.029754823,1.6081005,-0.0017392042,488.11032,5.9496856,0.4650764,0.45554265,0.17489997,0.12499111,inf,inf,inf,inf,1,1,1,1,2,0,2,1,3,1,1,1,0,0
25232000,25232000,904000,47.3977508,8.5456073,1.0167332,0.05887018,-5.8280582,-0.00014175766,0.007439493,0.0,-1.6050075,-0.008541868,0.055386562,0.012896569,-0.011515036,0.008892436,0.039197564,-1.0636927,-0.051590405,0.06946548,1.6082264,-0.0017392042,488.11032,5.9488826,0.47545382,0.45919362,0.1801451,0.1267743,inf,inf,inf,inf,1,1,1,1,2,0,2,1,3,1,1,1,0,0
25736000,25736000,904000,47.3977508,8.5456073,0.13309532,0.09388234,-5.8240256,-0.00014175766,0.007439493,0.0,-1.911039,-0.018221537,0.063743055,0.017016184,-0.011515036,0.008892436,0.039197564,-0.13572775,-0.0497233,0.014209188,1.6073498,-0.0017392042,488.11032,5.94485,0.48706812,0.45979527,0.18293399,0.12831731,inf,inf,inf,inf,1,1,1,1,2,0,2,1,3,1,1,1,0,0
26232000,26232000,904000,47.3977508,8.5456073,-0.78551275,0.12482841,-5.8237023,-0.00014175766,0.007439493,0.0,-1.7390518,-0.045570906,0.060896967,0.009336358,-0.011515036,0.008892436,0.039197564,0.8070111,-0.11584293,4.5634803e-05,1.6077689,-0.0017392042,488.11032,5.9445267,0.49804968,0.46387386,0.18249016,0.13029517,inf,inf,inf,inf,1,1,1,1,2,0,2,1,3,1,1,1,0,0
26736000,26736000,904000,47.3977508,8.5456073,-1.5413535,0.13312091,-5.825102,-0.00014175766,0.007439493,0.0,-1.1189065,-0.07883263,0.051814985,-0.00266264,-0.011515036,0.008892436,0.039197564,1.6162424,-0.07114027,-0.04942808,1.6084297,-0.0017392042,488.11032,5.945926,0.46467134,0.45521662,0.16507737,0.12652318,inf,inf,inf,inf,1,1,1,1,2,0,2,1,3,1,1,1,0,0
27240000,27240000,904000,47.3977508,8.5456073,-1.9211806,0.12099434,-5.854055,-0.00014175766,0.007439493,0.0,-0.21581717,-0.092262685,0.053774185,-0.02163806,-0.011515036,0.008892436,0.039197564,1.9454219,-0.0049016085,0.0630347,1.6088786,-0.0017392042,488.11032,5.9748793,0.4752068,0.45976472,0.17239557,0.12850623,inf,inf,inf,inf,1,1,1,1,2,0,2,1,3,1,1,1,0,0
27736000,27736000,904000,47.3977508,8.5456073,-1.8293478,0.092239425,-5.8721733,-0.00014175766,0.007439493,0.0,0.7255938,-0.09180931,0.078552715,-0.00547421,-0.011515036,0.008892436,0.039197564,1.8411934,0.044166006,0.08365977,1.6086671,-0.0017392042,488.11032,5.9929976,0.48522127,0.45973328,0.18447739,0.12971726,inf,inf,inf,inf,1,1,1,1,2,0,2,1,3,1,1,1,0,0
28232000,28232000,904000,47.3977508,8.5456073,-1.2934364,0.048477937,-5.867232,-0.00014175766,0.007439493,0.0,1.5065273,-0.08233234,0.09884122,0.01869955,-0.011515036,0.008892436,0.039197564,1.2837666,0.034224108,0.043285076,1.6082,-0.0017392042,488.11032,5.988056,0.49598646,0.46369433,0.19607432,0.1314383,inf,inf,inf,inf,1,1,1,1,2,0,2,1,3,1,1,1,0,0
28736000,28736000,904000,47.3977508,8.5456073,-0.42298064,0.008774846,-5.8526535,-0.00014175766,0.007439493,0.0,1.9310774,-0.055584587,0.100438215,0.025080604,-0.011515036,0.008892436,0.039197564,0.36124715,0.053694308,-0.0017844139,1.6076368,-0.0017392042,488.11032,5.973478,0.46336553,0.4550241,0.17905642,0.12736559,inf,inf,inf,inf,1,1,1,1,2,0,2,1,3,1,1,1,0,0
29232000,29232000,904000,47.3977508,8.5456073,0.5501481,-0.014229415,-5.8508763,-0.00014175766,0.007439493,0.0,1.8785957,-0.025059795,0.09955025,0.016977048,-0.011515036,0.008892436,0.039197564,-0.586058,0.0857122,0.028721986,1.6073356,-0.0017392042,488.11032,5.9717007,0.47333026,0.45884076,0.17922412,0.12904553,inf,inf,inf,inf,1,1,1,1,2,0,2,1,3,1,1,1,0,0
29736000,29736000,904000,47.3977508,8.5456073,1.4027524,-0.022205008,-5.8412337,-0.00014175766,0.007439493,0.0,1.3433278,-0.0048705274,0.097756825,0.016533323,-0.011515036,0.008892436,0.039197564,-1.4761074,0.025274348,-0.0014072283,1.6076821,-0.0017392042,488.11032,5.962058,0.48471376,0.4596052,0.1790183,0.13034372,inf,inf,inf,inf,1,1,1,1,2,0,2,1,3,1,1,1,0,0
30232000,30232000,904000,47.3977508,8.5456073,1.8946843,-0.017973864,-5.8417397,-0.00014175766,0.007439493,0.0,0.48897368,0.006378876,0.080377385,-0.003000346,-0.011515036,0.008892436,0.039197564,-1.9540739,-0.010221614,-0.010896473,1.6081859,-0.0017392042,488.11032,5.962564,0.4954984,0.4636824,0.18429394,0.13195342,inf,inf,inf,inf,1,1,1,1,2,0,2,1,3,1,1,1,0,0
30736000,30736000,904000,47.3977508,8.5456073,1.9302096,0.012315216,-5.8399887,-0.00014175766,0.007439493,0.0,-0.4892313,0.009787695,0.065168105,-0.010440931,-0.011515036,0.008892436,0.039197564,-1.9223495,-0.083904564,0.006526708,1.6082771,-0.0017392042,488.11032,5.960813,0.4631741,0.45511413,0.17613505,0.1277231,inf,inf,inf,inf,1,1,1,1,2,0,2,1,3,1,1,1,0,0
31232000,31232000,904000,47.3977508,8.5456073,1.4987568,0.059465308,-5.837141,-0.00014175766,0.007439493,0.0,-1.3354894,-0.00048845634,0.07118782,0.0015478118,-0.011515036,0.008892436,0.039197564,-1.455199,-0.07589774,0.032917593,1.6069113,-0.0017392042,488.11032,5.9579654,0.4728831,0.45518282,0.18783349,0.12879801,inf,inf,inf,inf,1,1,1,1,2,0,2,1,3,1,1,1,0,0
31736000,31736000,904000,47.3977508,8.5456073,0.6835041,0.09994104,-5.832249,-0.00014175766,0.007439493,0.0,-1.8713096,-0.028202074,0.07909703,0.010979986,-0.011515036,0.008892436,0.039197564,-0.63500565,-0.13166262,0.042660158,1.6065835,-0.0017392042,488.11032,5.9530735,0.48438376,0.45995367,0.1948529,0.13061002,inf,inf,inf,inf,1,1,1,1,2,0,2,1,3,1,1,1,0,0
32232000,32232000,904000,47.3977508,8.5456073,-0.29340875,0.12880526,-5.828464,-0.00014175766,0.007439493,0.0,-1.940526,-0.059707668,0.07680252,0.007917283,-0.011515036,0.008892436,0.039197564,0.38147366,-0.1345674,0.00046100465,1.6066959,-0.0017392042,488.11032,5.9492884,0.49588284,0.46017173,0.19459227,0.13170096,inf,inf,inf,inf,1,1,1,1,2,0,2,1,3,1,1,1,0,0
32736000,32736000,904000,47.3977508,8.5456073,-1.217444,0.14032178,-5.8246226,-0.00014175766,0.007439493,0.0,-1.5147382,-0.091250926,0.07416343,0.0069489623,-0.011515036,0.008892436,0.039197564,1.3291036,-0.10701943,-0.015327706,1.6077313,-0.0017392042,488.11032,5.945447,0.4631123,0.45565075,0.17160897,0.1280168,inf,inf,inf,inf,1,1,1,1,2,0,2,1,3,1,1,1,0,0
33232000,33232000,904000,47.3977508,8.5456073,-1.8408641,0.12975986,-5.8215303,-0.00014175766,0.007439493,0.0,-0.730452,-0.110861994,0.050626893,-0.012902332,-0.011515036,0.008892436,0.039197564,1.8527406,-0.045403514,-0.059158538,1.608702,-0.0017392042,488.11032,5.9423547,0.4733169,0.4557877,0.1745971,0.12904675,inf,inf,inf,inf,1,1,1,1,2,0,2,1,3,1,1,1,0,0
33736000,33736000,904000,47.3977508,8.5456073,-2.0212846,0.10308575,-5.8296037,-0.00014175766,0.007439493,0.0,0.24635713,-0.10598978,0.0359254,-0.024832979,-0.011515036,0.008892436,0.039197564,2.0189314,0.005175403,0.021937301,1.6095984,-0.0017392042,488.11032,5.950428,0.48471653,0.46044567,0.18615523,0.1307089,inf,inf,inf,inf,1,1,1,1,2,0,2,1,3,1,1,1,0,0
34232000,34232000,904000,47.3977508,8.5456073,-1.707214,0.08306359,-5.8323483,-0.00014175766,0.007439493,0.0,1.1539139,-0.09033003,0.05361067,-0.0020375033,-0.011515036,0.008892436,0.039197564,1.624112,-0.024403328,0.06512552,1.6092186,-0.0017392042,488.11032,5.9531727,0.4959419,0.46433643,0.2002816,0.13215485,inf,inf,inf,inf,1,1,1,1,2,0,2,1,3,1,1,1,0,0
34736000,34736000,904000,47.3977508,8.5456073,-0.97311294,0.060963143,-5.8250704,-0.00014175766,0.007439493,0.0,1.7971724,-0.07745852,0.06920344,0.0177286,-0.011515036,0.008892436,0.039197564,0.88532996,0.012239528,-0.0022975726,1.6087413,-0.0017392042,488.11032,5.9458947,0.46316507,0.45541483,0.18443105,0.12777123,inf,inf,inf,inf,1,1,1,1,2,0,2,1,3,1,1,1,0,0
35232000,35232000,904000,47.3977508,8.5456073,-0.012765214,0.03333594,-5.8113637,-0.00014175766,0.007439493,0.0,2.0003479,-0.061252188,0.06367702,0.015455763,-0.011515036,0.008892436,0.039197564,-0.05697738,0.010597286,0.047149133,1.6085035,-0.0017392042,488.11032,5.932188,0.47345936,0.45911852,0.18528447,0.12929885,inf,inf,inf,inf,1,1,1,1,2,0,2,1,3,1,1,1,0,0
35736000,35736000,904000,47.3977508,8.5456073,0.95347095,0.023931783,-5.8094997,-0.00014175766,0.007439493,0.0,1.7091867,-0.040083002,0.064916074,0.011375416,-0.011515036,0.008892436,0.039197564,-1.062961,-0.0138641475,0.049762424,1.6088691,-0.0017392042,488.11032,5.930324,0.4852949,0.4635669,0.18213847,0.13100691,inf,inf,inf,inf,1,1,1,1,2,0,2,1,3,1,1,1,0,0
36232000,36232000,904000,47.3977508,8.5456073,1.6605476,0.014988927,-5.8017635,-0.00014175766,0.007439493,0.0,1.0055196,-0.033682488,0.05769156,0.006588502,-0.011515036,0.008892436,0.039197564,-1.7362545,0.011702941,-0.022080725,1.6078231,-0.0017392042,488.11032,5.922588,0.4964109,0.46324608,0.18074669,0.13192281,inf,inf,inf,inf,1,1,1,1,2,0,2,1,3,1,1,1,0,0
36736000,36736000,904000,47.3977508,8.5456073,1.968036,0.0114919655,-5.80264,-0.00014175766,0.007439493,0.0,0.05749566,-0.022482878,0.033227894,-0.01579659,-0.011515036,0.008892436,0.039197564,-1.9552003,0.025078202,-0.040741634,1.6081998,-0.0017392042,488.11032,5.9234643,0.4636643,0.45439932,0.16827455,0.12758216,inf,inf,inf,inf,1,1,1,1,2,0,2,1,3,1,1,1,0,0
37240000,37240000,904000,47.3977508,8.5456073,1.7861693,0.020332232,-5.812574,-0.00014175766,0.007439493,0.0,-0.89130026,-0.018541029,0.04034685,-0.010958918,-0.011515036,0.008892436,0.039197564,-1.7833881,0.017897617,0.07440801,1.6083449,-0.0017392042,488.11032,5.9333982,0.4742283,0.4588739,0.17960495,0.12928039,inf,inf,inf,inf,1,1,1,1,2,0,2,1,3,1,1,1,0,0
37736000,37736000,904000,47.3977508,8.5456073,1.1760975,0.033141624,-5.8194776,-0.00014175766,0.007439493,0.0,-1.615601,-0.018627213,0.059568718,0.0028165877,-0.011515036,0.008892436,0.039197564,-1.1642058,0.004469824,0.075200565,1.607532,-0.0017392042,488.11032,5.940302,0.48452887,0.4626627,0.18888974,0.1308119,inf,inf,inf,inf,1,1,1,1,2,0,2,1,3,1,1,1,0,0
38232000,38232000,904000,47.3977508,8.5456073,0.2775592,0.058464576,-5.8208857,-0.00014175766,0.007439493,0.0,-1.9581115,-0.022653747,0.074289486,0.012345411,-0.011515036,0.008892436,0.039197564,-0.22416899,-0.09173186,0.034257766,1.6078031,-0.0017392042,488.11032,5.94171,0.49562228,0.4624917,0.19191244,0.13182956,inf,inf,inf,inf,1,1,1,1,2,0,2,1,3,1,1,1,0,0
38736000,38736000,904000,47.3977508,8.5456073,-0.70073473,0.07044616,-5.823565,-0.00014175766,0.007439493,0.0,-1.8164208,-0.04038232,0.06836981,0.00070151826,-0.011515036,0.008892436,0.039197564,0.76919454,-0.07599433,-0.026602296,1.6084305,-0.0017392042,488.11032,5.9443893,0.4630182,0.45759806,0.16976318,0.1281223,inf,inf,inf,inf,1,1,1,1,2,0,2,1,3,1,1,1,0,0
39240000,39240000,904000,47.3977508,8.5456073,-1.5039186,0.07261105,-5.842976,-0.00014175766,0.007439493,0.0,-1.2160562,-0.053455226,0.07377484,-0.0097706225,-0.011515036,0.008892436,0.039197564,1.530678,0.0002495362,0.06485823,1.6084461,-0.0017392042,488.11032,5.9638004,0.47390306,0.45806414,0.16913265,0.12932602,inf,inf,inf,inf,1,1,1,1,2,0,2,1,3,1,1,1,0,0
39736000,39736000,904000,47.3977508,8.5456073,-1.9303848,0.0640913,-5.856774,-0.00014175766,0.007439493,0.0,-0.33654994,-0.05647234,0.073513195,-0.01625225,-0.011515036,0.008892436,0.039197564,1.9732354,0.008857183,0.04033185,1.6085207,-0.0017392042,488.11032,5.977598,0.48421893,0.46185347,0.17469172,0.1308314,inf,inf,inf,inf,1,1,1,1,2,0,2,1,3,1,1,1,0,0
40232000,40232000,904000,47.3977508,8.5456073,-1.8869705,0.05637048,-5.870844,-0.00014175766,0.007439493,0.0,0.6215506,-0.04897071,0.08493084,-0.008700506,-0.011515036,0.008892436,0.039197564,1.8883238,-0.013258599,0.07953308,1.6090108,-0.0017392042,488.11032,5.991668,0.4949813,0.46172014,0.18726885,0.13174935,inf,inf,inf,inf,1,1,1,1,2,0,2,1,3,1,1,1,0,0
40736000,40736000,904000,47.3977508,8.5456073,-1.3852981,0.048114978,-5.8706098,-0.00014175766,0.007439493,0.0,1.437472,-0.04642059,0.10285098,0.010963328,-0.011515036,0.008892436,0.039197564,1.3868012,-0.023155501,0.005097128,1.6087674,-0.0017392042,488.11032,5.991434,0.4627294,0.4569414,0.17784843,0.12796104,inf,inf,inf,inf,1,1,1,1,2,0,2,1,3,1,1,1,0,0
41232000,41232000,904000,47.3977508,8.5456073,-0.5434799,0.038580973,-5.875364,-0.00014175766,0.007439493,0.0,1.9039907,-0.04138053,0.116784036,0.014924517,-0.011515036,0.008892436,0.039197564,0.5147012,-0.03255943,0.07542967,1.6087703,-0.0017392042,488.11032,5.996188,0.472689,0.46064273,0.18300295,0.12949029,inf,inf,inf,inf,1,1,1,1,2,0,2,1,3,1,1,1,0,0
41736000,41736000,904000,47.3977508,8.5456073,0.45138752,0.022031818,-5.8743477,-0.00014175766,0.007439493,0.0,1.9017471,-0.03555982,0.122760564,0.014871023,-0.011515036,0.008892436,0.039197564,-0.49813473,0.059525173,0.045603137,1.6079853,-0.0017392042,488.11032,5.995172,0.4842832,0.46118906,0.18221572,0.13070552,inf,inf,inf,inf,1,1,1,1,2,0,2,1,3,1,1,1,0,0
42240000,42240000,904000,47.3977508,8.5456073,1.3347492,0.0017941745,-5.8633175,-0.00014175766,0.007439493,0.0,1.4104933,-0.025536107,0.1255204,0.021283723,-0.011515036,0.008892436,0.039197564,-1.432437,0.055170994,0.002668239,1.607714,-0.0017392042,488.11032,5.984142,0.4962606,0.46575427,0.17903897,0.13243835,inf,inf,inf,inf,1,1,1,1,2,0,2,1,3,1,1,1,0,0
42736000,42736000,904000,47.3977508,8.5456073,1.8899394,-0.0044031367,-5.8586106,-0.00014175766,0.007439493,0.0,0.5866729,-0.008469803,0.10153338,-0.0012296685,-0.011515036,0.008892436,0.039197564,-1.9418063,0.022770442,-0.076010816,1.6081688,-0.0017392042,488.11032,5.979435,0.46301764,0.45620853,0.16211891,0.12793282,inf,inf,inf,inf,1,1,1,1,2,0,2,1,3,1,1,1,0,0
43232000,43232000,904000,47.3977508,8.5456073,1.9889882,-0.004820824,-5.869892,-0.00014175766,0.007439493,0.0,-0.37841538,-8.32519e-05,0.08961236,-0.016665347,-0.011515036,0.008892436,0.039197564,-1.9589182,-0.00020816513,0.05798321,1.6082149,-0.0017392042,488.11032,5.9907165,0.4726337,0.46000063,0.16945024,0.12943457,inf,inf,inf,inf,1,1,1,1,2,0,2,1,3,1,1,1,0,0
43736000,43736000,904000,47.3977508,8.5456073,1.6044937,-0.0011087243,-5.86974,-0.00014175766,0.007439493,0.0,-1.2636307,0.00018355061,0.104277045,0.0036309424,-0.011515036,0.008892436,0.039197564,-1.563588,-0.011173455,0.0011008232,1.6090635,-0.0017392042,488.11032,5.9905643,0.48338702,0.4604963,0.18001041,0.13055073,inf,inf,inf,inf,1,1,1,1,2,0,2,1,3,1,1,1,0,0
44240000,44240000,904000,47.3977508,8.5456073,0.8239724,0.0023741669,-5.8624816,-0.00014175766,0.007439493,0.0,-1.8490537,-0.00042795262,0.112340815,0.015385335,-0.011515036,0.008892436,0.039197564,-0.74530244,0.0069897063,0.06511062,1.6093054,-0.0017392042,488.11032,5.983306,0.49493405,0.46495134,0.18753065,0.1322376,inf,inf,inf,inf,1,1,1,1,2,0,2,1,3,1,1,1,0,0
44736000,44736000,904000,47.3977508,8.5456073,-0.13948548,0.008885417,-5.856522,-0.00014175766,0.007439493,0.0,-1.974286,-0.0044310484,0.109409735,0.01244496,-0.011515036,0.008892436,0.039197564,0.22334525,0.0029613727,0.008064321,1.6094759,-0.0017392042,488.11032,5.9773464,0.46202773,0.455187,0.16899161,0.12774266,inf,inf,inf,inf,1,1,1,1,2,0,2,1,3,1,1,1,0,0
45240000,45240000,904000,47.3977508,8.5456073,-1.0780349,0.016821522,-5.855314,-0.00014175766,0.007439493,0.0,-1.613969,-0.008735272,0.10419831,0.0060734637,-0.011515036,0.008892436,0.039197564,1.1851649,-0.003885303,0.018271616,1.6087917,-0.0017392042,488.11032,5.976138,0.4725813,0.45950785,0.16831209,0.12948556,inf,inf,inf,inf,1,1,1,1,2,0,2,1,3,1,1,1,0,0
45736000,45736000,904000,47.3977508,8.5456073,-1.7430241,0.029046379,-5.8546205,-0.00014175766,0.007439493,0.0,-0.87264746,-0.009965398,0.08884681,-0.008186678,-0.011515036,0.008892436,0.039197564,1.8023579,-0.009811555,0.043920238,1.6083667,-0.0017392042,488.11032,5.975445,0.4828735,0.45930117,0.1702554,0.1304802,inf,inf,inf,inf,1,1,1,1,2,0,2,1,3,1,1,1,0,0
46232000,46232000,904000,47.3977508,8.5456073,-1.9821619,0.04099411,-5.867574,-0.00014175766,0.007439493,0.0,0.07658944,-0.01863563,0.076356605,-0.023939084,-0.011515036,0.008892436,0.039197564,1.9558995,-0.056844246,0.02892222,1.6081382,-0.0017392042,488.11032,5.9883986,0.49339652,0.4630139,0.17880976,0.13191476,inf,inf,inf,inf,1,1,1,1,2,0,2,1,3,1,1,1,0,0
46736000,46736000,904000,47.3977508,8.5456073,-1.7283247,0.048192024,-5.8819046,-0.00014175766,0.007439493,0.0,1.0117816,-0.026096758,0.0994849,-0.005295025,-0.011515036,0.008892436,0.039197564,1.7206892,-0.031536836,0.09498651,1.6082983,-0.0017392042,488.11032,6.002729,0.46168512,0.45795363,0.1716105,0.12802744,inf,inf,inf,inf,1,1,1,1,2,0,2,1,3,1,1,1,0,0
47240000,47240000,904000,47.3977508,8.5456073,-1.0360388,0.045315664,-5.884153,-0.00014175766,0.007439493,0.0,1.6973447,-0.0348818,0.12045057,0.012501338,-0.011515036,0.008892436,0.039197564,0.952241,-0.044780534,0.08912104,1.6081433,-0.0017392042,488.11032,6.004977,0.47224116,0.45835394,0.18032157,0.12915665,inf,inf,inf,inf,1,1,1,1,2,0,2,1,3,1,1,1,0,0
47736000,47736000,904000,47.3977508,8.5456073,-0.09964954,0.03138042,-5.870458,-0.00014175766,0.007439493,0.0,1.9604865,-0.035671003,0.12386256,0.02095024,-0.011515036,0.008892436,0.039197564,0.04037056,0.03884223,-0.029810702,1.6081979,-0.0017392042,488.11032,5.9912825,0.48276758,0.46213236,0.18288246,0.13071632,inf,inf,inf,inf,1,1,1,1,2,0,2,1,3,1,1,1,0,0
48232000,48232000,904000,47.3977508,8.5456073,0.87113214,0.019456826,-5.858977,-0.00014175766,0.007439493,0.0,1.7426009,-0.02787244,0.11723928,0.01812547,-0.011515036,0.008892436,0.039197564,-0.96858627,-0.03955909,0.043240372,1.608005,-0.0017392042,488.11032,5.979801,0.49380416,0.46197152,0.18092498,0.1317372,inf,inf,inf,inf,1,1,1,1,2,0,2,1,3,1,1,1,0,0
48736000,48736000,904000,47.3977508,8.5456073,1.6433198,0.01822309,-5.8513002,-0.00014175766,0.007439493,0.0,1.0732248,-0.019908108,0.10942704,0.011869372,-0.011515036,0.008892436,0.039197564,-1.7437406,0.0012651434,-0.01440104,1.607988,-0.0017392042,488.11032,5.9721246,0.461809,0.4570723,0.1616589,0.12796687,inf,inf,inf,inf,1,1,1,1,2,0,2,1,3,1,1,1,0,0
49240000,49240000,904000,47.3977508,8.5456073,2.0111723,0.023824483,-5.848012,-0.00014175766,0.007439493,0.0,0.13888687,-0.0146258315,0.07317064,-0.019794516,-0.011515036,0.008892436,0.039197564,-1.9969167,0.003264271,-0.0076415013,1.6083317,-0.0017392042,488.11032,5.9688363,0.472318,0.45745274,0.16560853,0.12908733,inf,inf,inf,inf,1,1,1,1,2,0,2,1,3,1,1,1,0,0
49736000,49736000,904000,47.3977508,8.5456073,1.8826582,0.024325125,-5.8580537,-0.00014175766,0.007439493,0.0,-0.8113039,-0.015520618,0.08313552,-0.010492165,-0.011515036,0.008892436,0.039197564,-1.8505915,0.01025974,0.10516401,1.6085753,-0.0017392042,488.11032,5.978878,0.4821584,0.46101746,0.1738006,0.13052157,inf,inf,inf,inf,1,1,1,1,2,0,2,1,3,1,1,1,0,0
50232000,50232000,904000,47.3977508,8.5456073,1.3150635,0.022142874,-5.8635054,-0.00014175766,0.007439493,0.0,-1.5720879,-0.016981065,0.102117196,0.005383352,-0.011515036,0.008892436,0.039197564,-1.248013,-0.0031349189,0.09454227,1.6088254,-0.0017392042,488.11032,5.9843297,0.4924817,0.46459168,0.18237829,0.13197222,inf,inf,inf,inf,1,1,1,1,2,0,2,1,3,1,1,1,0,0
50736000,50736000,904000,47.3977508,8.5456073,0.42981192,0.019577425,-5.8610106,-0.00014175766,0.007439493,0.0,-1.9696773,-0.016184418,0.1125356,0.013844976,-0.011515036,0.008892436,0.039197564,-0.343592,-0.003970388,0.025544314,1.6096231,-0.0017392042,488.11032,5.981835,0.46102908,0.45935073,0.16821317,0.1281548,inf,inf,inf,inf,1,1,1,1,2,0,2,1,3,1,1,1,0,0
51240000,51240000,904000,47.3977508,8.5456073,-0.55833894,0.017238408,-5.867743,-0.00014175766,0.007439493,0.0,-1.8915899,-0.016493978,0.11145965,0.0029978727,-0.011515036,0.008892436,0.039197564,0.6500965,-0.01936106,0.021949409,1.6092201,-0.0017392042,488.11032,5.9885674,0.471476,0.45952487,0.16935398,0.12935224,inf,inf,inf,inf,1,1,1,1,2,0,2,1,3,1,1,1,0,0
51736000,51736000,904000,47.3977508,8.5456073,-1.3942264,0.018301377,-5.866265,-0.00014175766,0.007439493,0.0,-1.3491302,-0.010279651,0.112338535,0.0044763805,-0.011515036,0.008892436,0.039197564,1.4897233,-0.01353702,0.02933014,1.6085755,-0.0017392042,488.11032,5.987089,0.48180935,0.46298936,0.16971724,0.13087884,inf,inf,inf,inf,1,1,1,1,2,0,2,1,3,1,1,1,0,0
52232000,52232000,904000,47.3977508,8.5456073,-1.889088,0.021744281,-5.865875,-0.00014175766,0.007439493,0.0,-0.48959193,-0.01154303,0.092333935,-0.011645394,-0.011515036,0.008892436,0.039197564,1.9224299,-0.0057906434,-0.008926726,1.6085846,-0.0017392042,488.11032,5.986699,0.49239248,0.4664897,0.1741822,0.13231857,inf,inf,inf,inf,1,1,1,1,2,0,2,1,3,1,1,1,0,0
52736000,52736000,904000,47.3977508,8.5456073,-1.9161052,0.02161188,-5.866866,-0.00014175766,0.007439493,0.0,0.49548638,-0.01588041,0.08130858,-0.0141551625,-0.011515036,0.008892436,0.039197564,1.9602581,-0.030654583,0.019511206,1.6081105,-0.0017392042,488.11032,5.9876904,0.46093932,0.45716405,0.16604646,0.127843,inf,inf,inf,inf,1,1,1,1,2,0,2,1,3,1,1,1,0,0
53240000,53240000,904000,47.3977508,8.5456073,-1.4656506,0.01759775,-5.874216,-0.00014175766,0.007439493,0.0,1.3475899,-0.019654857,0.0969536,-0.0013171684,-0.011515036,0.008892436,0.039197564,1.4551849,-0.0039659785,0.11120736,1.6080881,-0.0017392042,488.11032,5.9950404,0.47145686,0.461184,0.1761428,0.12943764,inf,inf,inf,inf,1,1,1,1,2,0,2,1,3,1,1,1,0,0
53736000,53736000,904000,47.3977508,8.5456073,-0.65693253,0.008942914,-5.870869,-0.00014175766,0.007439493,0.0,1.8620024,-0.01605455,0.11423782,0.015815515,-0.011515036,0.008892436,0.039197564,0.60471404,0.002140732,0.06647873,1.6081505,-0.0017392042,488.11032,5.9916935,0.4820336,0.46457437,0.18228225,0.13091749,inf,inf,inf,inf,1,1,1,1,2,0,2,1,3,1,1,1,0,0
54240000,54240000,904000,47.3977508,8.5456073,0.32745084,0.0061669685,-5.858827,-0.00014175766,0.007439493,0.0,1.9178509,-0.0076465164,0.114125974,0.019814292,-0.011515036,0.008892436,0.039197564,-0.42252108,-0.010696225,0.014088116,1.6078272,-0.0017392042,488.11032,5.9796515,0.4941967,0.4646471,0.18361051,0.13205351,inf,inf,inf,inf,1,1,1,1,2,0,2,1,3,1,1,1,0,0
54736000,54736000,904000,47.3977508,8.5456073,1.2184454,0.00025086524,-5.8484836,-0.00014175766,0.007439493,0.0,1.4949645,-0.004701206,0.10587704,0.014553221,-0.011515036,0.008892436,0.039197564,-1.2368324,0.010606148,-0.028955748,1.6077341,-0.0017392042,488.11032,5.969308,0.4614049,0.45857987,0.16362856,0.12806056,inf,inf,inf,inf,1,1,1,1,2,0,2,1,3,1,1,1,0,0
55232000,55232000,904000,47.3977508,8.5456073,1.8356742,-0.0067485096,-5.851986,-0.00014175766,0.007439493,0.0,0.71746993,0.0003443301,0.0924096,-0.005123919,-0.011515036,0.008892436,0.039197564,-1.8802843,0.032998897,-0.04355702,1.6081748,-0.0017392042,488.11032,5.9728103,0.47124547,0.46188763,0.16448183,0.12953609,inf,inf,inf,inf,1,1,1,1,2,0,2,1,3,1,1,1,0,0
55736000,55736000,904000,47.3977508,8.5456073,2.0057826,-0.00051494647,-5.85815,-0.00014175766,0.007439493,0.0,-0.26220638,0.0047731847,0.07548397,-0.020826057,-0.011515036,0.008892436,0.039197564,-1.9847105,-0.0013566749,0.066461965,1.608541,-0.0017392042,488.11032,5.9789743,0.48204526,0.4619384,0.17014115,0.13059495,inf,inf,inf,inf,1,1,1,1,2,0,2,1,3,1,1,1,0,0
56232000,56232000,904000,47.3977508,8.5456073,1.6923606,0.004383787,-5.8517237,-0.00014175766,0.007439493,0.0,-1.1603085,0.0042925286,0.085955575,0.0021838143,-0.011515036,0.008892436,0.039197564,-1.6555343,0.016553283,0.043487173,1.6086705,-0.0017392042,488.11032,5.972548,0.4924353,0.46532145,0.17844124,0.13202585,inf,inf,inf,inf,1,1,1,1,2,0,2,1,3,1,1,1,0,0
56736000,56736000,904000,47.3977508,8.5456073,0.96907115,0.0107178325,-5.8381467,-0.00014175766,0.007439493,0.0,-1.7977874,0.0022278132,0.086646535,0.013433665,-0.011515036,0.008892436,0.039197564,-0.92807925,0.005070862,0.0014444812,1.6092871,-0.0017392042,488.11032,5.958971,0.4611436,0.45600718,0.16717762,0.12765613,inf,inf,inf,inf,1,1,1,1,2,0,2,1,3,1,1,1,0,0
57240000,57240000,904000,47.3977508,8.5456073,0.0092894435,0.01783114,-5.81517,-0.00014175766,0.007439493,0.0,-1.9973102,-0.002569556,0.07082943,0.012207511,-0.011515036,0.008892436,0.039197564,0.10315043,-0.010351373,-0.008784234,1.6093785,-0.0017392042,488.11032,5.935994,0.47146,0.46009323,0.17057699,0.1293954,inf,inf,inf,inf,1,1,1,1,2,0,2,1,3,1,1,1,0,0
57736000,57736000,904000,47.3977508,8.5456073,-0.9399938,0.025051024,-5.8113604,-0.00014175766,0.007439493,0.0,-1.7121,-0.003966593,0.05696281,-0.0013247109,-0.011515036,0.008892436,0.039197564,1.1071297,-0.010757357,0.017108394,1.608947,-0.0017392042,488.11032,5.9321847,0.48161817,0.45971805,0.17122759,0.13045232,inf,inf,inf,inf,1,1,1,1,2,0,2,1,3,1,1,1,0,0
58232000,58232000,904000,47.3977508,8.5456073,-1.653752,0.03336021,-5.8213778,-0.00014175766,0.007439493,0.0,-1.0042315,-0.011946768,0.058374796,-0.008169898,-0.011515036,0.008892436,0.039197564,1.7453958,-0.015950572,0.012742355,1.6085583,-0.0017392042,488.11032,5.942202,0.49222234,0.46344838,0.17305222,0.13200401,inf,inf,inf,inf,1,1,1,1,2,0,2,1,3,1,1,1,0,0
58736000,58736000,904000,47.3977508,8.5456073,-1.9647039,0.030779256,-5.8324656,-0.00014175766,0.007439493,0.0,-0.04727129,-0.018499382,0.04689872,-0.022790823,-0.011515036,0.008892436,0.039197564,2.0083153,-0.013457581,0.009798444,1.6085614,-0.0017392042,488.11032,5.95329,0.4608218,0.45841494,0.16242814,0.12815623,inf,inf,inf,inf,1,1,1,1,2,0,2,1,3,1,1,1,0,0
59240000,59240000,904000,47.3977508,8.5456073,-1.8049983,0.019629108,-5.843654,-0.00014175766,0.007439493,0.0,0.9064639,-0.020976443,0.058108225,-0.012666081,-0.011515036,0.008892436,0.039197564,1.7886629,0.013491007,0.049523074,1.6080534,-0.0017392042,488.11032,5.9644785,0.47141805,0.45872733,0.17213069,0.1292713,inf,inf,inf,inf,1,1,1,1,2,0,2,1,3,1,1,1,0,0
59736000,59736000,904000,47.3977508,8.5456073,-1.2006108,0.0054807817,-5.8362856,-0.00014175766,0.007439493,0.0,1.644999,-0.011924453,0.076218724,0.012379959,-0.011515036,0.008892436,0.039197564,1.1470438,-0.010515955,0.030049121,1.607871,-0.0017392042,488.11032,5.95711,0.48172984,0.4622394,0.18046412,0.13071473,inf,inf,inf,inf,1,1,1,1,2,0,2,1,3,1,1,1,0,0
60232000,60232000,904000,47.3977508,8.5456073,-0.29912126,-0.0040902593,-5.83233,-0.00014175766,0.007439493,0.0,1.9879761,-0.0041473955,0.08214872,0.015578468,-0.011515036,0.008892436,0.039197564,0.2254276,0.019854952,0.044480894,1.6074826,-0.0017392042,488.11032,5.9531546,0.49290088,0.46580553,0.18470691,0.13221714,inf,inf,inf,inf,1,1,1,1,2,0,2,1,3,1,1,1,0,0
60736000,60736000,904000,47.3977508,8.5456073,0.6767327,-0.007707833,-5.8328094,-0.00014175766,0.007439493,0.0,1.8429966,0.0042844745,0.08407984,0.0109752305,-0.011515036,0.008892436,0.039197564,-0.7546872,0.007850452,0.005721114,1.6076908,-0.0017392042,488.11032,5.953634,0.46114814,0.45657215,0.16598375,0.12785792,inf,inf,inf,inf,1,1,1,1,2,0,2,1,3,1,1,1,0,0
61232000,61232000,904000,47.3977508,8.5456073,1.4654164,-0.016170759,-5.8351893,-0.00014175766,0.007439493,0.0,1.2530398,0.009977554,0.087444246,0.008034772,-0.011515036,0.008892436,0.039197564,-1.5671662,0.009228082,-0.004383735,1.6073533,-0.0017392042,488.11032,5.9560137,0.4710711,0.45995304,0.16571987,0.12934822,inf,inf,inf,inf,1,1,1,1,2,0,2,1,3,1,1,1,0,0
61736000,61736000,904000,47.3977508,8.5456073,1.8955457,-0.017976936,-5.8344107,-0.00014175766,0.007439493,0.0,0.3528581,0.013261474,0.06792572,-0.009748198,-0.011515036,0.008892436,0.039197564,-1.9588518,0.015047363,-0.029454006,1.6081235,-0.0017392042,488.11032,5.955235,0.4820246,0.4601508,0.16851354,0.13042845,inf,inf,inf,inf,1,1,1,1,2,0,2,1,3,1,1,1,0,0
62240000,62240000,904000,47.3977508,8.5456073,1.8446865,-0.015430122,-5.8343167,-0.00014175766,0.007439493,0.0,-0.61537105,0.01635136,0.05903865,-0.010570795,-0.011515036,0.008892436,0.039197564,-1.8540869,-0.021868762,0.019110737,1.608886,-0.0017392042,488.11032,5.955141,0.49321574,0.4645084,0.17518395,0.13205808,inf,inf,inf,inf,1,1,1,1,2,0,2,1,3,1,1,1,0,0
62736000,62736000,904000,47.3977508,8.5456073,1.3360163,-0.008124016,-5.828888,-0.00014175766,0.007439493,0.0,-1.4169146,0.013254141,0.067312516,0.0050736573,-0.011515036,0.008892436,0.039197564,-1.308635,0.009835828,-0.0032680107,1.609071,-0.0017392042,488.11032,5.9497123,0.46108145,0.4548331,0.16471623,0.12754588,inf,inf,inf,inf,1,1,1,1,2,0,2,1,3,1,1,1,0,0
63240000,63240000,904000,47.3977508,8.5456073,0.4784612,0.006078864,-5.828723,-0.00014175766,0.007439493,0.0,-1.8758758,0.012227811,0.07553164,0.010164397,-0.011515036,0.008892436,0.039197564,-0.4486343,-0.0069247903,0.049152408,1.609223,-0.0017392042,488.11032,5.9495473,0.47130236,0.4591413,0.1700053,0.12929136,inf,inf,inf,inf,1,1,1,1,2,0,2,1,3,1,1,1,0,0
63736000,63736000,904000,47.3977508,8.5456073,-0.49155828,0.017064659,-5.822417,-0.00014175766,0.007439493,0.0,-1.8625088,0.004338002,0.07016903,0.0063896216,-0.011515036,0.008892436,0.039197564,0.524001,-0.040521726,-0.03259815,1.6094098,-0.0017392042,488.11032,5.943241,0.48136464,0.45889816,0.17212951,0.13035762,inf,inf,inf,inf,1,1,1,1,2,0,2,1,3,1,1,1,0,0
64232000,64232000,904000,47.3977508,8.5456073,-1.3478093,0.029963085,-5.820402,-0.00014175766,0.007439493,0.0,-1.381005,0.0009680134,0.06749245,0.003605288,-0.011515036,0.008892436,0.039197564,1.4283875,-0.031977918,-0.03875326,1.6084255,-0.0017392042,488.11032,5.9412265,0.49196157,0.46264943,0.17339979,0.13192661,inf,inf,inf,inf,1,1,1,1,2,0,2,1,3,1,1,1,0,0
64736000,64736000,904000,47.3977508,8.5456073,-1.8977658,0.039914418,-5.821988,-0.00014175766,0.007439493,0.0,-0.54755837,-0.0070853424,0.055031452,-0.008179786,-0.011515036,0.008892436,0.039197564,1.9427173,-0.04539835,-0.023893079,1.6084265,-0.0017392042,488.11032,5.9428124,0.4606439,0.4577586,0.16050951,0.12813123,inf,inf,inf,inf,1,1,1,1,2,0,2,1,3,1,1,1,0,0
65240000,65240000,904000,47.3977508,8.5456073,-1.9871402,0.04061777,-5.823498,-0.00014175766,0.007439493,0.0,0.42806405,-0.011541361,0.033551183,-0.02212233,-0.011515036,0.008892436,0.039197564,1.9165901,-0.0050073867,0.03757141,1.608224,-0.0017392042,488.11032,5.944322,0.47112757,0.45821407,0.16833268,0.12925255,inf,inf,inf,inf,1,1,1,1,2,0,2,1,3,1,1,1,0,0
65736000,65736000,904000,47.3977508,8.5456073,-1.6037095,0.032786444,-5.82493,-0.00014175766,0.007439493,0.0,1.2904592,-0.01696576,0.047361027,-0.0030624545,-0.011515036,0.008892436,0.039197564,1.5533016,0.0005875335,0.030105932,1.6077669,-0.0017392042,488.11032,5.9457545,0.48136654,0.46188012,0.17701948,0.13070099,inf,inf,inf,inf,1,1,1,1,2,0,2,1,3,1,1,1,0,0
66232000,66232000,904000,47.3977508,8.5456073,-0.8373632,0.013686828,-5.818815,-0.00014175766,0.007439493,0.0,1.8604007,-0.014548066,0.059209887,0.012657041,-0.011515036,0.008892436,0.039197564,0.74394155,0.012490956,0.048199665,1.6077952,-0.0017392042,488.11032,5.9396396,0.4922906,0.46173656,0.18346335,0.1316673,inf,inf,inf,inf,1,1,1,1,2,0,2,1,3,1,1,1,0,0
66736000,66736000,904000,47.3977508,8.5456073,0.14223643,-0.0044122688,-5.8013263,-0.00014175766,0.007439493,0.0,1.9876254,-0.005438073,0.05422521,0.017116902,-0.011515036,0.008892436,0.039197564,-0.23878661,0.076125674,-0.027012078,1.6073319,-0.0017392042,488.11032,5.9221506,0.46076405,0.456995,0.1670389,0.12796229,inf,inf,inf,inf,1,1,1,1,2,0,2,1,3,1,1,1,0,0
67232000,67232000,904000,47.3977508,8.5456073,1.060706,-0.013296501,-5.7760653,-0.00014175766,0.007439493,0.0,1.6260874,0.008529974,0.044591416,0.023172103,-0.011515036,0.008892436,0.039197564,-1.1490098,0.03547933,-0.053608786,1.6073077,-0.0017392042,488.11032,5.8968897,0.47071472,0.45684424,0.16737752,0.12901846,inf,inf,inf,inf,1,1,1,1,2,0,2,1,3,1,1,1,0,0
67736000,67736000,904000,47.3977508,8.5456073,1.7201481,-0.016662002,-5.7528853,-0.00014175766,0.007439493,0.0,0.86969465,0.022255844,0.0068573533,0.00094708515,-0.011515036,0.008892436,0.039197564,-1.8400735,0.05472806,-0.11808145,1.6076357,-0.0017392042,488.11032,5.8737097,0.48181397,0.46142283,0.16888984,0.13074851,inf,inf,inf,inf,1,1,1,1,2,0,2,1,3,1,1,1,0,0
68240000,68240000,904000,47.3977508,8.5456073,1.9517984,-0.015789948,-5.7484784,-0.00014175766,0.007439493,0.0,-0.09192911,0.024305917,-0.030067129,-0.02672339,-0.011515036,0.008892436,0.039197564,-1.9576383,-0.00403494,-0.03923848,1.6080453,-0.0017392042,488.11032,5.8693027,0.49314094,0.46194163,0.17374088,0.13183378,inf,inf,inf,inf,1,1,1,1,2,0,2,1,3,1,1,1,0,0
68736000,68736000,904000,47.3977508,8.5456073,1.7119434,-0.017380528,-5.7486396,-0.00014175766,0.007439493,0.0,-1.0096875,0.02143283,-0.023563372,-0.011909729,-0.011515036,0.008892436,0.039197564,-1.7249515,0.011663345,0.014418735,1.6087079,-0.0017392042,488.11032,5.869464,0.46093324,0.45628068,0.16316131,0.1278049,inf,inf,inf,inf,1,1,1,1,2,0,2,1,3,1,1,1,0,0
69232000,69232000,904000,47.3977508,8.5456073,1.0519754,-0.018920502,-5.7401204,-0.00014175766,0.007439493,0.0,-1.694352,0.023080513,-0.019308815,9.255292e-05,-0.011515036,0.008892436,0.039197564,-1.0444186,-0.0130796535,0.025011597,1.6092811,-0.0017392042,488.11032,5.8609447,0.47033885,0.4599136,0.16939643,0.12930754,inf,inf,inf,inf,1,1,1,1,2,0,2,1,3,1,1,1,0,0
69736000,69736000,904000,47.3977508,8.5456073,0.117493585,-0.011859084,-5.7459097,-0.00014175766,0.007439493,0.0,-1.9645805,0.02481393,-0.008867634,0.0018905646,-0.011515036,0.008892436,0.039197564,-0.024131149,-0.004375062,-0.013730488,1.6093739,-0.0017392042,488.11032,5.866734,0.48130918,0.4603368,0.17356767,0.1305118,inf,inf,inf,inf,1,1,1,1,2,0,2,1,3,1,1,1,0,0
70232000,70232000,904000,47.3977508,8.5456073,-0.82460034,0.00095226883,-5.7450414,-0.00014175766,0.007439493,0.0,-1.7457249,0.019031497,-0.0051400764,0.0041878107,-0.011515036,0.008892436,0.039197564,0.9147616,0.0015134864,-0.014686956,1.6091294,-0.0017392042,488.11032,5.8658657,0.49191022,0.46407077,0.17505924,0.13207786,inf,inf,inf,inf,1,1,1,1,2,0,2,1,3,1,1,1,0,0
70736000,70736000,904000,47.3977508,8.5456073,-1.580387,0.0163006,-5.7397866,-0.00014175766,0.007439493,0.0,-1.0916202,0.010279849,-0.017462421,-0.00519767,-0.011515036,0.008892436,0.039197564,1.6537272,-0.013759767,-0.10964646,1.6085541,-0.0017392042,488.11032,5.860611,0.46070644,0.45525986,0.16032694,0.12780039,inf,inf,inf,inf,1,1,1,1,2,0,2,1,3,1,1,1,0,0
71232000,71232000,904000,47.3977508,8.5456073,-1.942542,0.019743497,-5.7494617,-0.00014175766,0.007439493,0.0,-0.18423037,-0.0027285905,-0.027483677,-0.017686667,-0.011515036,0.008892436,0.039197564,1.9829763,-0.025114829,-0.034715977,1.6085438,-0.0017392042,488.11032,5.870286,0.47037148,0.4589486,0.1653064,0.12929583,inf,inf,inf,inf,1,1,1,1,2,0,2,1,3,1,1,1,0,0
71736000,71736000,904000,47.3977508,8.5456073,-1.8285894,0.020167159,-5.749991,-0.00014175766,0.007439493,0.0,0.7804228,-0.00759243,-0.029216088,-0.010979229,-0.011515036,0.008892436,0.039197564,1.8128104,-0.039499804,-0.013093463,1.6080803,-0.0017392042,488.11032,5.8708153,0.48148182,0.45945567,0.17367734,0.13041182,inf,inf,inf,inf,1,1,1,1,2,0,2,1,3,1,1,1,0,0
72232000,72232000,904000,47.3977508,8.5456073,-1.2763685,0.02156581,-5.748827,-0.00014175766,0.007439493,0.0,1.5424712,-0.009688825,-0.0182488,0.0022251266,-0.011515036,0.008892436,0.039197564,1.2146758,0.0052170213,0.030440276,1.6079371,-0.0017392042,488.11032,5.8696513,0.49225783,0.4632151,0.18150228,0.13187723,inf,inf,inf,inf,1,1,1,1,2,0,2,1,3,1,1,1,0,0
72736000,72736000,904000,47.3977508,8.5456073,-0.40380988,0.014887338,-5.7394896,-0.00014175766,0.007439493,0.0,1.9465368,-0.012313711,-0.011578594,0.012072719,-0.011515036,0.008892436,0.039197564,0.3270949,0.045864463,-0.016576609,1.6078192,-0.0017392042,488.11032,5.860314,0.46076295,0.45430267,0.16756977,0.12755185,inf,inf,inf,inf,1,1,1,1,2,0,2,1,3,1,1,1,0,0
73240000,73240000,904000,47.3977508,8.5456073,0.5660248,0.0095358435,-5.7336245,-0.00014175766,0.007439493,0.0,1.866,-0.008286547,-0.015771013,0.006659708,-0.011515036,0.008892436,0.039197564,-0.6422223,-0.0038630676,-0.014845281,1.6073171,-0.0017392042,488.11032,5.854449,0.47149703,0.4586516,0.16956663,0.12930217,inf,inf,inf,inf,1,1,1,1,2,0,2,1,3,1,1,1,0,0
73736000,73736000,904000,47.3977508,8.5456073,1.3914113,0.008345554,-5.737603,-0.00014175766,0.007439493,0.0,1.3290396,-0.002707299,-0.01141449,0.0032803565,-0.011515036,0.008892436,0.039197564,-1.4868582,-0.011069539,-0.022524035,1.6078644,-0.0017392042,488.11032,5.8584275,0.48182884,0.46240965,0.17010406,0.13086027,inf,inf,inf,inf,1,1,1,1,2,0,2,1,3,1,1,1,0,0
74232000,74232000,904000,47.3977508,8.5456073,1.8884469,0.011153353,-5.7399883,-0.00014175766,0.007439493,0.0,0.4721804,-0.0022279432,-0.024525678,-0.011444786,-0.011515036,0.008892436,0.039197564,-1.9953369,-0.012631556,-0.03982335,1.6080701,-0.0017392042,488.11032,5.8608127,0.49235892,0.4621675,0.17249772,0.13179076,inf,inf,inf,inf,1,1,1,1,2,0,2,1,3,1,1,1,0,0
74736000,74736000,904000,47.3977508,8.5456073,1.9249451,0.015892139,-5.7514014,-0.00014175766,0.007439493,0.0,-0.51697135,-0.00181245,-0.029881613,-0.019343007,-0.011515036,0.008892436,0.039197564,-1.9163842,-0.032178357,0.04254281,1.6083384,-0.0017392042,488.11032,5.8722258,0.46099642,0.45718294,0.16124755,0.12793411,inf,inf,inf,inf,1,1,1,1,2,0,2,1,3,1,1,1,0,0
75232000,75232000,904000,47.3977508,8.5456073,1.5039217,0.01734792,-5.7644963,-0.00014175766,0.007439493,0.0,-1.3630801,-0.0034829364,-0.003934713,-0.0011123557,-0.011515036,0.008892436,0.039197564,-1.509983,0.0007212947,0.05051214,1.6090895,-0.0017392042,488.11032,5.8853207,0.4704149,0.46071166,0.1677009,0.12939131,inf,inf,inf,inf,1,1,1,1,2,0,2,1,3,1,1,1,0,0
75736000,75736000,904000,47.3977508,8.5456073,0.7041318,0.023051377,-5.762631,-0.00014175766,0.007439493,0.0,-1.898903,-0.0033699493,0.013265657,0.014846042,-0.011515036,0.008892436,0.039197564,-0.72680414,0.026303677,-0.001172535,1.6091535,-0.0017392042,488.11032,5.8834553,0.4811723,0.4609569,0.1733865,0.13051817,inf,inf,inf,inf,1,1,1,1,2,0,2,1,3,1,1,1,0,0
76240000,76240000,904000,47.3977508,8.5456073,-0.27946407,0.032279655,-5.755287,-0.00014175766,0.007439493,0.0,-1.9686495,-0.004639045,0.0055197664,0.008545551,-0.011515036,0.008892436,0.039197564,0.38276035,-0.0020536098,0.0023962928,1.609184,-0.0017392042,488.11032,5.8761115,0.49262187,0.46532536,0.17658584,0.13225396,inf,inf,inf,inf,1,1,1,1,2,0,2,1,3,1,1,1,0,0
76736000,76736000,904000,47.3977508,8.5456073,-1.1768434,0.034099203,-5.752369,-0.00014175766,0.007439493,0.0,-1.5434269,-0.013783477,0.0031048122,0.0064557837,-0.011515036,0.008892436,0.039197564,1.326393,0.0017163692,-0.0054715197,1.6090212,-0.0017392042,488.11032,5.8731933,0.46058607,0.4555512,0.16092268,0.12777579,inf,inf,inf,inf,1,1,1,1,2,0,2,1,3,1,1,1,0,0
77240000,77240000,904000,47.3977508,8.5456073,-1.7797982,0.034748387,-5.7492123,-0.00014175766,0.007439493,0.0,-0.72984535,-0.016657783,-0.015110301,-0.00877844,-0.011515036,0.008892436,0.039197564,1.8458228,0.049060345,-0.050010156,1.608475,-0.0017392042,488.11032,5.8700366,0.47119147,0.45990047,0.16461751,0.12949555,inf,inf,inf,inf,1,1,1,1,2,0,2,1,3,1,1,1,0,0
77736000,77736000,904000,47.3977508,8.5456073,-1.9206482,0.031892426,-5.7576103,-0.00014175766,0.007439493,0.0,0.22936311,-0.019358741,-0.025878135,-0.019213116,-0.011515036,0.008892436,0.039197564,1.9320503,-0.002686589,0.052954067,1.608207,-0.0017392042,488.11032,5.8784347,0.48144212,0.45985627,0.17105463,0.13049898,inf,inf,inf,inf,1,1,1,1,2,0,2,1,3,1,1,1,0,0
78232000,78232000,904000,47.3977508,8.5456073,-1.605175,0.022469297,-5.772509,-0.00014175766,0.007439493,0.0,1.1163163,-0.022430794,-0.0052445843,-0.0065850853,-0.011515036,0.008892436,0.039197564,1.6089845,-0.0059242444,0.048377547,1.6081918,-0.0017392042,488.11032,5.8933334,0.49210814,0.46383908,0.1789423,0.13201505,inf,inf,inf,inf,1,1,1,1,2,0,2,1,3,1,1,1,0,0
78736000,78736000,904000,47.3977508,8.5456073,-0.88743263,0.0058269505,-5.773702,-0.00014175766,0.007439493,0.0,1.7481765,-0.01570564,0.017336866,0.013054035,-0.011515036,0.008892436,0.039197564,0.8478832,0.020044869,0.00081676984,1.6079606,-0.0017392042,488.11032,5.8945265,0.46078062,0.45507622,0.16705362,0.12770683,inf,inf,inf,inf,1,1,1,1,2,0,2,1,3,1,1,1,0,0
79240000,79240000,904000,47.3977508,8.5456073,0.05782146,-0.006848452,-5.7690625,-0.00014175766,0.007439493,0.0,1.9457023,-0.005893205,0.017313695,0.01005148,-0.011515036,0.008892436,0.039197564,-0.12500083,0.028578635,0.022482125,1.607393,-0.0017392042,488.11032,5.889887,0.47156,0.45946285,0.17081323,0.12945879,inf,inf,inf,inf,1,1,1,1,2,0,2,1,3,1,1,1,0,0
79736000,79736000,904000,47.3977508,8.5456073,0.97708446,-0.016399488,-5.7709503,-0.00014175766,0.007439493,0.0,1.6610137,0.004324694,0.022470966,0.009556729,-0.011515036,0.008892436,0.039197564,-1.0245934,0.045400344,0.017131677,1.6072708,-0.0017392042,488.11032,5.8917747,0.4819114,0.45941502,0.17187223,0.13052382,inf,inf,inf,inf,1,1,1,1,2,0,2,1,3,1,1,1,0,0
80240000,80240000,904000,47.3977508,8.5456073,1.6666814,-0.01887786,-5.771801,-0.00014175766,0.007439493,0.0,0.95569366,0.014951273,0.017683296,0.0013650996,-0.011515036,0.008892436,0.039197564,-1.7522558,-0.005339272,-0.0065136696,1.6078743,-0.0017392042,488.11032,5.8926253,0.49345145,0.46420828,0.17340605,0.13228334,inf,inf,inf,inf,1,1,1,1,2,0,2,1,3,1,1,1,0,0
80736000,80736000,904000,47.3977508,8.5456073,1.9460186,-0.016388347,-5.784874,-0.00014175766,0.007439493,0.0,0.03339931,0.018033247,0.007897604,-0.016156223,-0.011515036,0.008892436,0.039197564,-1.9765207,0.008891526,-0.017221084,1.6082242,-0.0017392042,488.11032,5.9056983,0.46108466,0.45475426,0.16009405,0.12773928,inf,inf,inf,inf,1,1,1,1,2,0,2,1,3,1,1,1,0,0
81240000,81240000,904000,47.3977508,8.5456073,1.7688518,-0.010554801,-5.7915287,-0.00014175766,0.007439493,0.0,-0.9042186,0.015605284,0.019302763,-0.0037828784,-0.011515036,0.008892436,0.039197564,-1.7523278,-0.0007120397,0.035167668,1.6086974,-0.0017392042,488.11032,5.912353,0.4713795,0.45916104,0.16622302,0.12937751,inf,inf,inf,inf,1,1,1,1,2,0,2,1,3,1,1,1,0,0
81736000,81736000,904000,47.3977508,8.5456073,1.1548138,-0.006790087,-5.7933784,-0.00014175766,0.007439493,0.0,-1.6272726,0.010020656,0.03103251,0.0053757066,-0.011515036,0.008892436,0.039197564,-1.1060641,-0.010438059,0.06901658,1.6091504,-0.0017392042,488.11032,5.9142027,0.4812757,0.4588906,0.17229603,0.13030532,inf,inf,inf,inf,1,1,1,1,2,0,2,1,3,1,1,1,0,0
82240000,82240000,904000,47.3977508,8.5456073,0.24267499,0.0009683196,-5.791361,-0.00014175766,0.007439493,0.0,-1.9585913,0.007641974,0.044967584,0.016444061,-0.011515036,0.008892436,0.039197564,-0.16301444,-0.022739928,0.033715736,1.609455,-0.0017392042,488.11032,5.912185,0.49263898,0.46347153,0.17687146,0.132048,inf,inf,inf,inf,1,1,1,1,2,0,2,1,3,1,1,1,0,0
82736000,82736000,904000,47.3977508,8.5456073,-0.7223092,0.011950255,-5.7890887,-0.00014175766,0.007439493,0.0,-1.803773,0.00407759,0.041219503,0.010147643,-0.011515036,0.008892436,0.039197564,0.85084045,-0.032093607,0.009144655,1.609203,-0.0017392042,488.11032,5.909913,0.4605027,0.45424065,0.1616504,0.12768622,inf,inf,inf,inf,1,1,1,1,2,0,2,1,3,1,1,1,0,0
83240000,83240000,904000,47.3977508,8.5456073,-1.5319781,0.021753358,-5.7984047,-0.00014175766,0.007439493,0.0,-1.1875408,-0.0030094087,0.035254866,-0.006458837,-0.011515036,0.008892436,0.039197564,1.5382298,-0.008897506,0.015079043,1.6086518,-0.0017392042,488.11032,5.919229,0.4709665,0.45897084,0.16435136,0.1294947,inf,inf,inf,inf,1,1,1,1,2,0,2,1,3,1,1,1,0,0
83736000,83736000,904000,47.3977508,8.5456073,-1.9610739,0.027000552,-5.8071156,-0.00014175766,0.007439493,0.0,-0.29855782,-0.005499287,0.033104528,-0.011674768,-0.011515036,0.008892436,0.039197564,2.0317621,-0.010339819,-0.012626871,1.6083122,-0.0017392042,488.11032,5.92794,0.4810856,0.4589859,0.16906679,0.13047284,inf,inf,inf,inf,1,1,1,1,2,0,2,1,3,1,1,1,0,0
84240000,84240000,904000,47.3977508,8.5456073,-1.9116051,0.028417753,-5.82263,-0.00014175766,0.007439493,0.0,0.68413746,-0.013665186,0.037329853,-0.012675848,-0.011515036,0.008892436,0.039197564,1.8973945,-0.00012200325,0.078496516,1.6081778,-0.0017392042,488.11032,5.9434543,0.4926112,0.4636142,0.17690133,0.13210079,inf,inf,inf,inf,1,1,1,1,2,0,2,1,3,1,1,1,0,0
84736000,84736000,904000,47.3977508,8.5456073,-1.4026171,0.023048516,-5.8166704,-0.00014175766,0.007439493,0.0,1.4927349,-0.016185282,0.051962283,0.009327484,-0.011515036,0.008892436,0.039197564,1.3785143,0.01300346,0.032773238,1.6080606,-0.0017392042,488.11032,5.9374948,0.4604491,0.45792207,0.16603978,0.12804648,inf,inf,inf,inf,1,1,1,1,2,0,2,1,3,1,1,1,0,0
85240000,85240000,904000,47.3977508,8.5456073,-0.5517217,0.022011997,-5.8199425,-0.00014175766,0.007439493,0.0,1.9525269,-0.011506886,0.06454299,0.013541775,-0.011515036,0.008892436,0.039197564,0.49472952,-0.014385601,0.05479529,1.6079967,-0.0017392042,488.11032,5.940767,0.4710734,0.45829788,0.17134131,0.12919043,inf,inf,inf,inf,1,1,1,1,2,0,2,1,3,1,1,1,0,0
85736000,85736000,904000,47.3977508,8.5456073,0.42731166,0.01961209,-5.81732,-0.00014175766,0.007439493,0.0,1.937967,-0.011782048,0.06757507,0.012795718,-0.011515036,0.008892436,0.039197564,-0.5238404,-0.011319541,0.047171485,1.6078136,-0.0017392042,488.11032,5.938144,0.4814673,0.46188352,0.17352468,0.13071112,inf,inf,inf,inf,1,1,1,1,2,0,2,1,3,1,1,1,0,0
86240000,86240000,904000,47.3977508,8.5456073,1.3106889,0.017008608,-5.803571,-0.00014175766,0.007439493,0.0,1.435592,-0.008251514,0.06397391,0.017021013,-0.011515036,0.008892436,0.039197564,-1.4382986,-0.0039919685,-0.03178976,1.6077453,-0.0017392042,488.11032,5.9243956,0.49314946,0.4662475,0.17469528,0.13239664,inf,inf,inf,inf,1,1,1,1,2,0,2,1,3,1,1,1,0,0
86736000,86736000,904000,47.3977508,8.5456073,1.8603493,0.00831642,-5.8038187,-0.00014175766,0.007439493,0.0,0.6008589,-0.008657088,0.041721188,-0.006386538,-0.011515036,0.008892436,0.039197564,-1.9333179,0.024315624,-0.0270484,1.6077578,-0.0017392042,488.11032,5.924643,0.46084595,0.45633918,0.15986496,0.12779757,inf,inf,inf,inf,1,1,1,1,2,0,2,1,3,1,1,1,0,0
87232000,87232000,904000,47.3977508,8.5456073,1.9490631,-0.0011925396,-5.814431,-0.00014175766,0.007439493,0.0,-0.36965755,-0.0034313882,0.030696537,-0.018785551,-0.011515036,0.008892436,0.039197564,-1.9117697,0.0038345603,0.028733162,1.6082233,-0.0017392042,488.11032,5.9352555,0.47042763,0.45992687,0.16461837,0.1292601,inf,inf,inf,inf,1,1,1,1,2,0,2,1,3,1,1,1,0,0
87736000,87736000,904000,47.3977508,8.5456073,1.5487009,-0.0021679353,-5.811074,-0.00014175766,0.007439493,0.0,-1.2510669,0.0011819619,0.043190513,0.002145417,-0.011515036,0.008892436,0.039197564,-1.5170773,0.0013324023,0.044163313,1.6090114,-0.0017392042,488.11032,5.931898,0.48116577,0.46031234,0.17112607,0.13036798,inf,inf,inf,inf,1,1,1,1,2,0,2,1,3,1,1,1,0,0
88240000,88240000,904000,47.3977508,8.5456073,0.76345056,-0.0017848352,-5.799787,-0.00014175766,0.007439493,0.0,-1.8209589,0.0063829888,0.047379363,0.013489668,-0.011515036,0.008892436,0.039197564,-0.7370871,0.012957039,0.03981683,1.6093352,-0.0017392042,488.11032,5.9206114,0.49248856,0.46468234,0.17690624,0.13205577,inf,inf,inf,inf,1,1,1,1,2,0,2,1,3,1,1,1,0,0
88736000,88736000,904000,47.3977508,8.5456073,-0.2024976,0.0017098318,-5.784594,-0.00014175766,0.007439493,0.0,-1.9303017,0.009168847,0.038838778,0.0125109255,-0.011515036,0.008892436,0.039197564,0.31065813,-0.012029282,-0.076982185,1.6092232,-0.0017392042,488.11032,5.9054184,0.46041766,0.45878944,0.16256647,0.12810987,inf,inf,inf,inf,1,1,1,1,2,0,2,1,3,1,1,1,0,0
89240000,89240000,904000,47.3977508,8.5456073,-1.1457238,0.0010474132,-5.7783775,-0.00014175766,0.007439493,0.0,-1.554972,0.004911262,0.024004512,-0.0005503867,-0.011515036,0.008892436,0.039197564,1.2646397,0.0022936,-0.029437242,1.609098,-0.0017392042,488.11032,5.899202,0.47086802,0.4590284,0.16513473,0.12932235,inf,inf,inf,inf,1,1,1,1,2,0,2,1,3,1,1,1,0,0
89736000,89736000,904000,47.3977508,8.5456073,-1.7943074,0.00034972458,-5.7863746,-0.00014175766,0.007439493,0.0,-0.793001,0.004638306,0.02200043,-0.009425379,-0.011515036,0.008892436,0.039197564,1.8342962,-0.0064097983,-0.02043694,1.6087185,-0.0017392042,488.11032,5.907199,0.4810105,0.4625186,0.16842206,0.13081793,inf,inf,inf,inf,1,1,1,1,2,0,2,1,3,1,1,1,0,0
90240000,90240000,904000,47.3977508,8.5456073,-2.0193152,0.007138583,-5.7946453,-0.00014175766,0.007439493,0.0,0.177503,0.008410752,0.011695677,-0.020027017,-0.011515036,0.008892436,0.039197564,2.047939,-0.0039488366,0.020108184,1.6080078,-0.0017392042,488.11032,5.9154696,0.49265504,0.46272123,0.17491734,0.13188238,inf,inf,inf,inf,1,1,1,1,2,0,2,1,3,1,1,1,0,0
90736000,90736000,904000,47.3977508,8.5456073,-1.7700442,0.010528675,-5.799204,-0.00014175766,0.007439493,0.0,1.098479,0.0027226289,0.022266582,-0.0061933114,-0.011515036,0.008892436,0.039197564,1.7157516,-0.006096626,0.04776753,1.6078366,-0.0017392042,488.11032,5.920028,0.4604856,0.45700058,0.1644951,0.12786938,inf,inf,inf,inf,1,1,1,1,2,0,2,1,3,1,1,1,0,0
91236000,91232000,904000,47.3977508,8.5456073,-1.1062034,0.010608572,-5.7989926,-0.00014175766,0.007439493,0.0,1.7742888,-0.0026140076,0.040684458,0.012211029,-0.011515036,0.008892436,0.039197564,1.055281,-0.022018677,0.034362074,1.6079174,-0.0017392042,488.11032,5.919817,0.47034386,0.45683226,0.17077757,0.12890628,inf,inf,inf,inf,1,1,1,1,2,0,2,1,3,1,1,1,0,0
91736000,91728000,904000,47.3977508,8.5456073,-0.17608221,0.014820988,-5.7920446,-0.00014175766,0.007439493,0.0,2.0388885,-0.003178316,0.039998833,0.011885142,-0.011515036,0.008892436,0.039197564,0.031805478,-0.025338303,-0.008245929,1.6079377,-0.0017392042,488.11032,5.912869,0.48079374,0.46078348,0.17464814,0.13054527,inf,inf,inf,inf,1,1,1,1,2,0,2,1,3,1,1,1,0,0
92232000,92224000,904000,47.3977508,8.5456073,0.779746,0.01964039,-5.791866,-0.00014175766,0.007439493,0.0,1.8159862,-0.006721032,0.04390595,0.011178842,-0.011515036,0.008892436,0.039197564,-0.9086077,-0.042822167,0.009509734,1.607569,-0.0017392042,488.11032,5.91269,0.4917176,0.460741,0.17614748,0.13160999,inf,inf,inf,inf,1,1,1,1,2,0,2,1,3,1,1,1,0,0
92736000,92728000,904000,47.3977508,8.5456073,1.5412734,0.022142496,-5.7837734,-0.00014175766,0.007439493,0.0,1.151045,-0.011636459,0.03690773,0.0072245114,-0.011515036,0.008892436,0.039197564,-1.6801013,-0.008662566,-0.07190741,1.6077445,-0.0017392042,488.11032,5.9045978,0.4604736,0.45609507,0.1604835,0.12790428,inf,inf,inf,inf,1,1,1,1,2,0,2,1,3,1,1,1,0,0
93232000,93224000,904000,47.3977508,8.5456073,1.8983552,0.021572152,-5.7765946,-0.00014175766,0.007439493,0.0,0.22800379,-0.013673946,0.008970043,-0.0115759075,-0.011515036,0.008892436,0.039197564,-2.0101175,-0.026027728,-0.043659467,1.6079398,-0.0017392042,488.11032,5.897419,0.4703181,0.45603096,0.16397321,0.1289146,inf,inf,inf,inf,1,1,1,1,2,0,2,1,3,1,1,1,0,0
93736000,93728000,904000,47.3977508,8.5456073,1.7762669,0.021179415,-5.775783,-0.00014175766,0.007439493,0.0,-0.7391511,-0.015162465,-0.0051489198,-0.016727846,-0.011515036,0.008892436,0.039197564,-1.796651,0.025076354,0.028185545,1.6085994,-0.0017392042,488.11032,5.8966074,0.48115215,0.4607589,0.16987431,0.13063148,inf,inf,inf,inf,1,1,1,1,2,0,2,1,3,1,1,1,0,0
94232000,94224000,904000,47.3977508,8.5456073,1.2247429,0.022924563,-5.770405,-0.00014175766,0.007439493,0.0,-1.5059036,-0.014094974,0.00868163,0.0044494625,-0.011515036,0.008892436,0.039197564,-1.2837547,-0.0051506064,0.0027297062,1.6091126,-0.0017392042,488.11032,5.891229,0.49157053,0.46085876,0.17587812,0.13163193,inf,inf,inf,inf,1,1,1,1,2,0,2,1,3,1,1,1,0,0
94736000,94728000,904000,47.3977508,8.5456073,0.3461796,0.027144386,-5.759162,-0.00014175766,0.007439493,0.0,-1.9135648,-0.016422635,0.010635197,0.012274013,-0.011515036,0.008892436,0.039197564,-0.3348795,0.04438702,0.013391486,1.6092932,-0.0017392042,488.11032,5.8799863,0.4605163,0.45628628,0.16322516,0.1279582,inf,inf,inf,inf,1,1,1,1,2,0,2,1,3,1,1,1,0,0
95232000,95224000,904000,47.3977508,8.5456073,-0.60231864,0.0322897,-5.7507887,-0.00014175766,0.007439493,0.0,-1.836856,-0.018276982,0.0007634632,0.005277782,-0.011515036,0.008892436,0.039197564,0.6226157,-0.03953979,-0.00888016,1.609018,-0.0017392042,488.11032,5.871613,0.4701052,0.4562283,0.16598809,0.12903127,inf,inf,inf,inf,1,1,1,1,2,0,2,1,3,1,1,1,0,0
95736000,95728000,904000,47.3977508,8.5456073,-1.4170487,0.039492793,-5.746771,-0.00014175766,0.007439493,0.0,-1.2945423,-0.016118107,-0.0025868672,0.0027211914,-0.011515036,0.008892436,0.039197564,1.4244143,-0.0025530898,-0.024045816,1.6087004,-0.0017392042,488.11032,5.867595,0.48107314,0.46083018,0.1687258,0.130774,inf,inf,inf,inf,1,1,1,1,2,0,2,1,3,1,1,1,0,0
96232000,96224000,904000,47.3977508,8.5456073,-1.873019,0.043718927,-5.744276,-0.00014175766,0.007439493,0.0,-0.45188633,-0.021907339,-0.024514956,-0.0148988785,-0.011515036,0.008892436,0.039197564,1.8836675,-0.014738005,-0.03007706,1.6082858,-0.0017392042,488.11032,5.8651004,0.49166515,0.46477294,0.17292759,0.13226403,inf,inf,inf,inf,1,1,1,1,2,0,2,1,3,1,1,1,0,0
96736000,96728000,904000,47.3977508,8.5456073,-1.8624247,0.043557115,-5.760466,-0.00014175766,0.007439493,0.0,0.50745475,-0.025817262,-0.02628035,-0.022032011,-0.011515036,0.008892436,0.039197564,1.817221,-0.043939374,0.05608424,1.6081201,-0.0017392042,488.11032,5.8812904,0.4604395,0.45590094,0.16224542,0.12783775,inf,inf,inf,inf,1,1,1,1,2,0,2,1,3,1,1,1,0,0
97232000,97224000,904000,47.3977508,8.5456073,-1.394712,0.044985812,-5.7675314,-0.00014175766,0.007439493,0.0,1.3225496,-0.027466027,0.00045632684,0.0033735605,-0.011515036,0.008892436,0.039197564,1.3557746,-0.024054648,0.059890557,1.608216,-0.0017392042,488.11032,5.8883557,0.4701344,0.45963147,0.1686641,0.12930849,inf,inf,inf,inf,1,1,1,1,2,0,2,1,3,1,1,1,0,0
97736000,97728000,904000,47.3977508,8.5456073,-0.5651746,0.040892243,-5.7580686,-0.00014175766,0.007439493,0.0,1.823571,-0.02863509,0.004791938,0.01234718,-0.011515036,0.008892436,0.039197564,0.550327,-0.0019968282,-0.00093691045,1.6079174,-0.0017392042,488.11032,5.878893,0.48125458,0.46021166,0.17417876,0.13048314,inf,inf,inf,inf,1,1,1,1,2,0,2,1,3,1,1,1,0,0
98240000,98232000,904000,47.3977508,8.5456073,0.4167667,0.03850977,-5.7467327,-0.00014175766,0.007439493,0.0,1.8580409,-0.023582974,-0.0025461644,0.009385414,-0.011515036,0.008892436,0.039197564,-0.45718423,0.0017587735,-0.012923031,1.6076055,-0.0017392042,488.11032,5.867557,0.49299794,0.4647584,0.17735182,0.1322312,inf,inf,inf,inf,1,1,1,1,2,0,2,1,3,1,1,1,0,0
98736000,98728000,904000,47.3977508,8.5456073,1.2923472,0.034215704,-5.730934,-0.00014175766,0.007439493,0.0,1.4184815,-0.025108298,-0.012124669,0.008822335,-0.011515036,0.008892436,0.039197564,-1.3448128,0.0003333407,-0.022538004,1.6073349,-0.0017392042,488.11032,5.8517585,0.46069005,0.4552018,0.16139294,0.12777427,inf,inf,inf,inf,1,1,1,1,2,0,2,1,3,1,1,1,0,0
99232000,99224000,904000,47.3977508,8.5456073,1.8881133,0.032025144,-5.728074,-0.00014175766,0.007439493,0.0,0.6343512,-0.023563936,-0.033322625,-0.011163329,-0.011515036,0.008892436,0.039197564,-1.9023175,-0.0131644765,-0.05787145,1.6077768,-0.0017392042,488.11032,5.8488984,0.47043613,0.4589249,0.16401932,0.12930886,inf,inf,inf,inf,1,1,1,1,2,0,2,1,3,1,1,1,0,0
99736000,99728000,904000,47.3977508,8.5456073,2.0377119,0.028071921,-5.745668,-0.00014175766,0.007439493,0.0,-0.3366149,-0.021791663,-0.04293261,-0.028165232,-0.011515036,0.008892436,0.039197564,-1.9920921,-0.030053036,0.023404134,1.6083853,-0.0017392042,488.11032,5.8664923,0.4813029,0.45944646,0.16904771,0.13042365,inf,inf,inf,inf,1,1,1,1,2,0,2,1,3,1,1,1,0,0
100232000,100224000,904000,47.3977508,8.5456073,1.7246671,0.020865118,-5.755502,-0.00014175766,0.007439493,0.0,-1.218181,-0.023964122,-0.017288364,-0.00408808,-0.011515036,0.008892436,0.039197564,-1.7047181,-0.012900534,0.0008521601,1.6085362,-0.0017392042,488.11032,5.8763266,0.45312652,0.45422196,0.15986048,0.12677093,inf,inf,inf,inf,1,1,1,1,2,0,2,1,3,1,1,1,0,0
100736000,100728000,904000,47.3977508,8.5456073,0.99594975,0.015017718,-5.751148,-0.00014175766,0.007439493,0.0,-1.8562679,-0.018753989,-0.0036911976,0.011692332,-0.011515036,0.008892436,0.039197564,-0.868343,0.010453702,0.013560987,1.6090043,-0.0017392042,488.11032,5.8719726,0.46559784,0.45878237,0.1672218,0.12883842,inf,inf,inf,inf,1,1,1,1,2,0,2,1,3,1,1,1,0,0
101232000,101224000,904000,47.3977508,8.5456073,0.04024222,0.011427801,-5.7420473,-0.00014175766,0.007439493,0.0,-2.0515044,-0.016033404,-0.0067864507,0.010911224,-0.011515036,0.008892436,0.039197564,0.056847345,-0.0073109693,-0.02440158,1.6091437,-0.0017392042,488.11032,5.8628716,0.47798288,0.4587221,0.17213218,0.13019212,inf,inf,inf,inf,1,1,1,1,2,0,2,1,3,1,1,1,0,0
101736000,101728000,904000,47.3977508,8.5456073,-0.912379,0.023570938,-5.7395835,-0.00014175766,0.007439493,0.0,-1.7440562,-0.012211266,-0.01135779,0.004426237,-0.011515036,0.008892436,0.039197564,1.0445741,-0.070777744,0.016292555,1.6087846,-0.0017392042,488.11032,5.860408,0.45134214,0.45426267,0.15915202,0.12689707,inf,inf,inf,inf,1,1,1,1,2,0,2,1,3,1,1,1,0,0
102236000,102236000,904000,47.3977508,8.5456073,-1.6188911,0.03184494,-5.7380667,-0.00014175766,0.007439493,0.0,-1.0176026,-0.019247204,-0.016887726,-0.0012248075,-0.011515036,0.008892436,0.039197564,1.7585248,-0.04573172,-0.028831882,1.6085742,-0.0017392042,488.11032,5.858891,0.4631135,0.45490354,0.16303493,0.12830001,inf,inf,inf,inf,1,1,1,1,2,0,2,1,3,1,1,1,0,0
102740000,102740000,904000,47.3977508,8.5456073,-1.9002538,0.034990184,-5.7390566,-0.00014175766,0.007439493,0.0,-0.0637287,-0.026096685,-0.042460423,-0.022003556,-0.011515036,0.008892436,0.039197564,2.0163248,-0.03951005,-0.04242081,1.6082368,-0.0017392042,488.11032,5.859881,0.47535253,0.45970678,0.16900107,0.13017613,inf,inf,inf,inf,1,1,1,1,2,0,2,1,3,1,1,1,0,0
103236000,103236000,904000,47.3977508,8.5456073,-1.69677,0.037682828,-5.747143,-0.00014175766,0.007439493,0.0,0.86847454,-0.028744845,-0.033754323,-0.01220784,-0.011515036,0.008892436,0.039197564,1.7016661,0.022987965,0.008361413,1.6081201,-0.0017392042,488.11032,5.867967,0.487099,0.45981264,0.1762055,0.13125172,inf,inf,inf,inf,1,1,1,1,2,0,2,1,3,1,1,1,0,0
103732000,103732000,904000,47.3977508,8.5456073,-1.0648717,0.048464496,-5.746149,-0.00014175766,0.007439493,0.0,1.576075,-0.033773284,-0.016722739,0.0059930827,-0.011515036,0.008892436,0.039197564,1.1014838,-0.025278931,0.032405365,1.6079667,-0.0017392042,488.11032,5.8669734,0.4566809,0.45462105,0.16470063,0.12745549,inf,inf,inf,inf,1,1,1,1,2,0,2,1,3,1,1,1,0,0
104236000,104236000,904000,47.3977508,8.5456073,-0.14512214,0.06434168,-5.7429223,-0.00014175766,0.007439493,0.0,1.8907954,-0.039128475,-0.005421818,0.014449687,-0.011515036,0.008892436,0.039197564,0.14809139,-0.013237076,-0.033790242,1.6080531,-0.0017392042,488.11032,5.8637466,0.4679019,0.45913622,0.16913654,0.12927316,inf,inf,inf,inf,1,1,1,1,2,0,2,1,3,1,1,1,0,0
104740000,104740000,904000,47.3977508,8.5456073,0.82953334,0.06966689,-5.734518,-0.00014175766,0.007439493,0.0,1.7182989,-0.048460748,-0.011828598,0.0096017225,-0.011515036,0.008892436,0.039197564,-0.8782511,-0.027630724,-0.05599856,1.6078768,-0.0017392042,488.11032,5.8553424,0.4797447,0.45978397,0.17165029,0.13057601,inf,inf,inf,inf,1,1,1,1,2,0,2,1,3,1,1,1,0,0
105236000,105236000,904000,47.3977508,8.5456073,1.6044645,0.06652585,-5.7276525,-0.00014175766,0.007439493,0.0,1.1021006,-0.055392414,-0.017766714,0.005598115,-0.011515036,0.008892436,0.039197564,-1.6339308,-0.0018121499,-0.037066635,1.6077242,-0.0017392042,488.11032,5.848477,0.49086753,0.46372753,0.17327425,0.13216715,inf,inf,inf,inf,1,1,1,1,2,0,2,1,3,1,1,1,0,0
105740000,105740000,904000,47.3977508,8.5456073,2.010793,0.06358929,-5.7259073,-0.00014175766,0.007439493,0.0,0.18807864,-0.056503933,-0.043786433,-0.01620098,-0.011515036,0.008892436,0.039197564,-2.0031862,-0.028360546,-0.032138076,1.6079636,-0.0017392042,488.11032,5.8467317,0.46011442,0.45508215,0.16005489,0.12787476,inf,inf,inf,inf,1,1,1,1,2,0,2,1,3,1,1,1,0,0
106236000,106236000,904000,47.3977508,8.5456073,1.9469109,0.06381931,-5.7374954,-0.00014175766,0.007439493,0.0,-0.76335764,-0.05740386,-0.044216745,-0.018978076,-0.011515036,0.008892436,0.039197564,-1.871519,0.017693657,0.016656702,1.6084167,-0.0017392042,488.11032,5.8583198,0.469911,0.45881703,0.16513442,0.12934712,inf,inf,inf,inf,1,1,1,1,2,0,2,1,3,1,1,1,0,0
106740000,106740000,904000,47.3977508,8.5456073,1.4242055,0.06720612,-5.750258,-0.00014175766,0.007439493,0.0,-1.5631008,-0.05132488,-0.015585783,0.0015470906,-0.011515036,0.008892436,0.039197564,-1.3474423,-0.038398676,0.018520279,1.6087499,-0.0017392042,488.11032,5.8710823,0.48086953,0.45939785,0.17113625,0.13047265,inf,inf,inf,inf,1,1,1,1,2,0,2,1,3,1,1,1,0,0
107236000,107236000,904000,47.3977508,8.5456073,0.5793662,0.06778556,-5.7507315,-0.00014175766,0.007439493,0.0,-2.0003,-0.055879135,5.1624585e-05,0.0131021105,-0.011515036,0.008892436,0.039197564,-0.49951738,-0.049253225,0.056387853,1.6092168,-0.0017392042,488.11032,5.871556,0.49146536,0.4633366,0.17574935,0.13201825,inf,inf,inf,inf,1,1,1,1,2,0,2,1,3,1,1,1,0,0
107740000,107740000,904000,47.3977508,8.5456073,-0.4124035,0.06556587,-5.739722,-0.00014175766,0.007439493,0.0,-1.9732401,-0.05541519,-0.009688611,0.0073189917,-0.011515036,0.008892436,0.039197564,0.5230424,-0.032708876,-0.02901349,1.6090521,-0.0017392042,488.11032,5.860546,0.46039805,0.45455453,0.16169244,0.12774488,inf,inf,inf,inf,1,1,1,1,2,0,2,1,3,1,1,1,0,0
108236000,108236000,904000,47.3977508,8.5456073,-1.2694362,0.060552504,-5.748811,-0.00014175766,0.007439493,0.0,-1.4667329,-0.054530017,-0.008582493,-0.001966176,-0.011515036,0.008892436,0.039197564,1.3996674,-0.038293436,0.048903745,1.6087587,-0.0017392042,488.11032,5.869635,0.47009316,0.45819473,0.16419256,0.12926853,inf,inf,inf,inf,1,1,1,1,2,0,2,1,3,1,1,1,0,0
108740000,108740000,904000,47.3977508,8.5456073,-1.806346,0.052894846,-5.7634625,-0.00014175766,0.007439493,0.0,-0.61408275,-0.046534494,-0.009248457,-0.013615604,-0.011515036,0.008892436,0.039197564,1.928059,0.0039583826,0.014916993,1.6084065,-0.0017392042,488.11032,5.884287,0.48108032,0.46268743,0.16848077,0.13093157,inf,inf,inf,inf,1,1,1,1,2,0,2,1,3,1,1,1,0,0
109236000,109236000,904000,47.3977508,8.5456073,-1.8805518,0.04859124,-5.7747955,-0.00014175766,0.007439493,0.0,0.35329205,-0.044162396,-0.009262745,-0.015259154,-0.011515036,0.008892436,0.039197564,1.9144459,0.022247156,0.03788713,1.6082643,-0.0017392042,488.11032,5.89562,0.49182773,0.46254468,0.17482266,0.1318358,inf,inf,inf,inf,1,1,1,1,2,0,2,1,3,1,1,1,0,0
109732000,109732000,904000,47.3977508,8.5456073,-1.4939595,0.04968245,-5.7850094,-0.00014175766,0.007439493,0.0,1.2167629,-0.04134537,0.013089487,0.0022808108,-0.011515036,0.008892436,0.039197564,1.5026408,-0.008100585,0.012524425,1.6078159,-0.0017392042,488.11032,5.9058337,0.45974052,0.4569761,0.16381384,0.1278117,inf,inf,inf,inf,1,1,1,1,2,0,2,1,3,1,1,1,0,0
110236000,110236000,904000,47.3977508,8.5456073,-0.7183493,0.0447159,-5.772343,-0.00014175766,0.007439493,0.0,1.7913588,-0.03954237,0.025530636,0.022704612,-0.011515036,0.008892436,0.039197564,0.71855235,0.014447373,-0.019676981,1.6079291,-0.0017392042,488.11032,5.8931675,0.4702686,0.45747924,0.16952975,0.12898241,inf,inf,inf,inf,1,1,1,1,2,0,2,1,3,1,1,1,0,0
110732000,110732000,904000,47.3977508,8.5456073,0.24486993,0.046165403,-5.7598767,-0.00014175766,0.007439493,0.0,1.9022665,-0.034955375,0.017784767,0.017831877,-0.011515036,0.008892436,0.039197564,-0.28803775,-0.012880875,-0.03307033,1.60776,-0.0017392042,488.11032,5.880701,0.44542798,0.45270988,0.15877034,0.12578046,inf,inf,inf,inf,1,1,1,1,2,0,2,1,3,1,1,1,0,0
111236000,111236000,904000,47.3977508,8.5456073,1.1803344,0.04083204,-5.7531576,-0.00014175766,0.007439493,0.0,1.5226512,-0.03373008,0.00839559,0.00882822,-0.011515036,0.008892436,0.039197564,-1.2522844,-0.0025131302,-0.0030705703,1.6076238,-0.0017392042,488.11032,5.873982,0.45756802,0.45351073,0.1621922,0.12740828,inf,inf,inf,inf,1,1,1,1,2,0,2,1,3,1,1,1,0,0
111740000,111740000,904000,47.3977508,8.5456073,1.8282323,0.03187039,-5.7582927,-0.00014175766,0.007439493,0.0,0.74643356,-0.03006928,-0.0026294428,-0.0081625655,-0.011515036,0.008892436,0.039197564,-1.8812639,0.03980049,-0.029698012,1.6077082,-0.0017392042,488.11032,5.879117,0.47018322,0.45817563,0.16580667,0.12943955,inf,inf,inf,inf,1,1,1,1,2,0,2,1,3,1,1,1,0,0
112236000,112236000,904000,47.3977508,8.5456073,2.0170138,0.023555072,-5.775213,-0.00014175766,0.007439493,0.0,-0.21027166,-0.024986638,-0.004147345,-0.0182487,-0.011515036,0.008892436,0.039197564,-2.0015306,0.005449168,0.09066145,1.6081507,-0.0017392042,488.11032,5.896037,0.48225003,0.46227935,0.17085055,0.13121183,inf,inf,inf,inf,1,1,1,1,2,0,2,1,3,1,1,1,0,0
112740000,112740000,904000,47.3977508,8.5456073,1.7288737,0.021757958,-5.78529,-0.00014175766,0.007439493,0.0,-1.1332263,-0.018948087,0.015765943,-0.0018713061,-0.011515036,0.008892436,0.039197564,-1.6794233,-0.025143875,0.05045626,1.608777,-0.0017392042,488.11032,5.906114,0.45423695,0.45401293,0.16066048,0.12719025,inf,inf,inf,inf,1,1,1,1,2,0,2,1,3,1,1,1,0,0
113236000,113236000,904000,47.3977508,8.5456073,1.0378674,0.019848334,-5.79247,-0.00014175766,0.007439493,0.0,-1.7821579,-0.015939878,0.036204748,0.0107036885,-0.011515036,0.008892436,0.039197564,-0.94006866,0.0069374507,0.0030314547,1.6091071,-0.0017392042,488.11032,5.9132943,0.46477786,0.4579437,0.16610685,0.12889285,inf,inf,inf,inf,1,1,1,1,2,0,2,1,3,1,1,1,0,0
113740000,113740000,904000,47.3977508,8.5456073,0.09506875,0.01627758,-5.7949233,-0.00014175766,0.007439493,0.0,-2.0155742,-0.011160776,0.042924635,0.010097084,-0.011515036,0.008892436,0.039197564,-0.016467411,-0.0033801624,0.05343556,1.6091809,-0.0017392042,488.11032,5.9157476,0.47660223,0.4586454,0.17043005,0.13023505,inf,inf,inf,inf,1,1,1,1,2,0,2,1,3,1,1,1,0,0
114236000,114236000,904000,47.3977508,8.5456073,-0.8522442,0.017939838,-5.7972503,-0.00014175766,0.007439493,0.0,-1.7715809,-0.008873372,0.04461915,0.0073511084,-0.011515036,0.008892436,0.039197564,0.9867045,-0.01848822,0.018369405,1.6090926,-0.0017392042,488.11032,5.9180746,0.4880224,0.46255857,0.17313421,0.13189009,inf,inf,inf,inf,1,1,1,1,2,0,2,1,3,1,1,1,0,0
114732000,114732000,904000,47.3977508,8.5456073,-1.5885589,0.019806344,-5.7971807,-0.00014175766,0.007439493,0.0,-1.1040432,-0.0074973563,0.040796313,0.0027327805,-0.011515036,0.008892436,0.039197564,1.6755012,-0.00697287,-0.046143305,1.6085123,-0.0017392042,488.11032,5.918005,0.45719087,0.45714176,0.15930977,0.12799843,inf,inf,inf,inf,1,1,1,1,2,0,2,1,3,1,1,1,0,0
115236000,115236000,904000,47.3977508,8.5456073,-1.9345407,0.013878136,-5.80313,-0.00014175766,0.007439493,0.0,-0.16541743,-0.007916671,0.017744837,-0.020517861,-0.011515036,0.008892436,0.039197564,2.0052376,0.037551913,-0.024214385,1.6083289,-0.0017392042,488.11032,5.9239545,0.4681432,0.45780373,0.16457243,0.12918644,inf,inf,inf,inf,1,1,1,1,2,0,2,1,3,1,1,1,0,0
115740000,115740000,904000,47.3977508,8.5456073,-1.7911704,0.009245096,-5.813457,-0.00014175766,0.007439493,0.0,0.7956634,-0.00666589,0.030462818,-0.00816372,-0.011515036,0.008892436,0.039197564,1.8156431,-0.03601171,0.087550834,1.607975,-0.0017392042,488.11032,5.9342813,0.47955462,0.46240956,0.17153008,0.13085368,inf,inf,inf,inf,1,1,1,1,2,0,2,1,3,1,1,1,0,0
116236000,116236000,904000,47.3977508,8.5456073,-1.2075216,0.010661767,-5.81373,-0.00014175766,0.007439493,0.0,1.5481409,-0.00329989,0.044916593,0.006777262,-0.011515036,0.008892436,0.039197564,1.1839081,-0.0073768166,0.03307871,1.6075839,-0.0017392042,488.11032,5.934554,0.49063224,0.46220663,0.1780428,0.13176525,inf,inf,inf,inf,1,1,1,1,2,0,2,1,3,1,1,1,0,0
116740000,116740000,904000,47.3977508,8.5456073,-0.3081091,0.01359699,-5.803745,-0.00014175766,0.007439493,0.0,1.9225404,-0.0023097838,0.055911325,0.020726712,-0.011515036,0.008892436,0.039197564,0.26113853,0.025635133,-0.0026701016,1.607676,-0.0017392042,488.11032,5.924569,0.45968255,0.45349535,0.16463551,0.12749174,inf,inf,inf,inf,1,1,1,1,2,0,2,1,3,1,1,1,0,0
117236000,117236000,904000,47.3977508,8.5456073,0.67619497,0.013580516,-5.7893343,-0.00014175766,0.007439493,0.0,1.8103757,-0.001808612,0.04551393,0.016304724,-0.011515036,0.008892436,0.039197564,-0.7508271,0.013928656,-0.02595689,1.6073978,-0.0017392042,488.11032,5.9101586,0.4697111,0.45727468,0.16707325,0.12909342,inf,inf,inf,inf,1,1,1,1,2,0,2,1,3,1,1,1,0,0
117732000,117732000,904000,47.3977508,8.5456073,1.4954693,0.010171069,-5.775339,-0.00014175766,0.007439493,0.0,1.2400562,0.0004935424,0.033198934,0.010619015,-0.011515036,0.008892436,0.039197564,-1.5629697,-0.055906083,0.003433786,1.6074891,-0.0017392042,488.11032,5.8961635,0.48010495,0.4612075,0.1688536,0.13068505,inf,inf,inf,inf,1,1,1,1,2,0,2,1,3,1,1,1,0,0
118236000,118236000,904000,47.3977508,8.5456073,1.961127,0.003882237,-5.7688456,-0.00014175766,0.007439493,0.0,0.34832162,0.0017653231,0.0030630408,-0.013434856,-0.011515036,0.008892436,0.039197564,-1.9769181,0.016820922,-0.033153217,1.6076018,-0.0017392042,488.11032,5.88967,0.49164352,0.4618143,0.17229411,0.13180616,inf,inf,inf,inf,1,1,1,1,2,0,2,1,3,1,1,1,0,0
118740000,118740000,904000,47.3977508,8.5456073,1.9383856,0.0036907636,-5.7742567,-0.00014175766,0.007439493,0.0,-0.63187134,0.0061038523,-0.0051691676,-0.017851649,-0.011515036,0.008892436,0.039197564,-1.8923906,-0.0006952468,0.033680346,1.6081926,-0.0017392042,488.11032,5.895081,0.46048045,0.45691156,0.16062085,0.12794666,inf,inf,inf,inf,1,1,1,1,2,0,2,1,3,1,1,1,0,0
119236000,119236000,904000,47.3977508,8.5456073,1.4538039,-0.0011967779,-5.775945,-0.00014175766,0.007439493,0.0,-1.4450884,0.0045314683,0.010484959,9.09176e-05,-0.011515036,0.008892436,0.039197564,-1.3858134,0.0063698967,0.0064466144,1.6090482,-0.0017392042,488.11032,5.8967695,0.47004092,0.45667875,0.16603853,0.12889457,inf,inf,inf,inf,1,1,1,1,2,0,2,1,3,1,1,1,0,0
119732000,119732000,904000,47.3977508,8.5456073,0.6341515,0.0011909755,-5.7660675,-0.00014175766,0.007439493,0.0,-1.9226546,0.004505686,0.015878886,0.011547904,-0.011515036,0.008892436,0.039197564,-0.56308573,0.004170535,0.019814817,1.609377,-0.0017392042,488.11032,5.886892,0.48004186,0.46034563,0.17071319,0.13040532,inf,inf,inf,inf,1,1,1,1,2,0,2,1,3,1,1,1,0,0
120236000,120236000,904000,47.3977508,8.5456073,-0.35574907,0.008317312,-5.7657337,-0.00014175766,0.007439493,0.0,-1.9506674,0.0024177376,0.012655546,0.0038941642,-0.011515036,0.008892436,0.039197564,0.47337344,-0.035575967,0.041106712,1.6093317,-0.0017392042,488.11032,5.886558,0.4914686,0.46484828,0.17429096,0.13215216,inf,inf,inf,inf,1,1,1,1,2,0,2,1,3,1,1,1,0,0
120740000,120740000,904000,47.3977508,8.5456073,-1.2470772,0.009725325,-5.763662,-0.00014175766,0.007439493,0.0,-1.4825109,-0.0014303152,0.0139988195,0.005080637,-0.011515036,0.008892436,0.039197564,1.3410496,0.025773289,-0.016398726,1.6088618,-0.0017392042,488.11032,5.884486,0.46030787,0.4559092,0.16016147,0.12784491,inf,inf,inf,inf,1,1,1,1,2,0,2,1,3,1,1,1,0,0
121236000,121236000,904000,47.3977508,8.5456073,-1.818158,0.013153041,-5.755034,-0.00014175766,0.007439493,0.0,-0.6756886,-0.0013877895,-0.006678668,-0.0068898555,-0.011515036,0.008892436,0.039197564,1.8892977,0.014235715,-0.057944093,1.6084994,-0.0017392042,488.11032,5.8758583,0.46997687,0.45949265,0.16404599,0.12933378,inf,inf,inf,inf,1,1,1,1,2,0,2,1,3,1,1,1,0,0
121740000,121740000,904000,47.3977508,8.5456073,-1.9447628,0.013930674,-5.7592564,-0.00014175766,0.007439493,0.0,0.3011072,-0.0037622978,-0.033178985,-0.02834618,-0.011515036,0.008892436,0.039197564,1.9699537,-0.004074754,-0.019275581,1.6081359,-0.0017392042,488.11032,5.8800807,0.48096246,0.45992842,0.1703701,0.13042647,inf,inf,inf,inf,1,1,1,1,2,0,2,1,3,1,1,1,0,0
122236000,122236000,904000,47.3977508,8.5456073,-1.5942394,0.014457199,-5.766821,-0.00014175766,0.007439493,0.0,1.1836514,-0.004899478,-0.012676067,-0.007495522,-0.011515036,0.008892436,0.039197564,1.5722966,0.015152661,0.05754642,1.6078789,-0.0017392042,488.11032,5.8876452,0.49165997,0.46361366,0.17715491,0.13186246,inf,inf,inf,inf,1,1,1,1,2,0,2,1,3,1,1,1,0,0
122740000,122740000,904000,47.3977508,8.5456073,-0.84529227,0.010032743,-5.7640247,-0.00014175766,0.007439493,0.0,1.7897316,-0.006785084,0.0046379664,0.010463585,-0.011515036,0.008892436,0.039197564,0.78309804,0.0016073317,0.034473833,1.6078597,-0.0017392042,488.11032,5.884849,0.46039763,0.4547844,0.16496262,0.12755309,inf,inf,inf,inf,1,1,1,1,2,0,2,1,3,1,1,1,0,0
123236000,123236000,904000,47.3977508,8.5456073,0.09917585,0.004848999,-5.752627,-0.00014175766,0.007439493,0.0,1.9513755,-0.0034145855,0.008244643,0.01824178,-0.011515036,0.008892436,0.039197564,-0.17090304,0.04445029,-0.032523643,1.6075116,-0.0017392042,488.11032,5.873451,0.47021967,0.45849705,0.16836718,0.12914297,inf,inf,inf,inf,1,1,1,1,2,0,2,1,3,1,1,1,0,0
123740000,123740000,904000,47.3977508,8.5456073,1.0292746,0.003991323,-5.735046,-0.00014175766,0.007439493,0.0,1.625225,0.00025803386,-0.0037062077,0.015506418,-0.011515036,0.008892436,0.039197564,-1.1509999,0.014057716,-0.051932406,1.6074284,-0.0017392042,488.11032,5.8558702,0.4813798,0.45907032,0.17064644,0.1303823,inf,inf,inf,inf,1,1,1,1,2,0,2,1,3,1,1,1,0,0
124236000,124236000,904000,47.3977508,8.5456073,1.695128,0.01038584,-5.7288327,-0.00014175766,0.007439493,0.0,0.9081416,0.007986612,-0.021411054,-0.00094729214,-0.011515036,0.008892436,0.039197564,-1.7690872,-0.0066573843,-0.048208047,1.607663,-0.0017392042,488.11032,5.849657,0.4920197,0.46290213,0.17280595,0.13191937,inf,inf,inf,inf,1,1,1,1,2,0,2,1,3,1,1,1,0,0
124740000,124740000,904000,47.3977508,8.5456073,1.955244,0.010498828,-5.7285876,-0.00014175766,0.007439493,0.0,-0.045494616,0.0062332205,-0.046342883,-0.021255555,-0.011515036,0.008892436,0.039197564,-1.9965857,0.04214182,-0.0594845,1.6080629,-0.0017392042,488.11032,5.849412,0.4607246,0.45440513,0.16006728,0.12764789,inf,inf,inf,inf,1,1,1,1,2,0,2,1,3,1,1,1,0,0
125236000,125236000,904000,47.3977508,8.5456073,1.7423521,0.011932838,-5.7285485,-0.00014175766,0.007439493,0.0,-0.9672615,0.007260309,-0.039971687,-0.0068071964,-0.011515036,0.008892436,0.039197564,-1.7242508,0.021292944,-0.011787749,1.6085408,-0.0017392042,488.11032,5.849373,0.47025907,0.45466042,0.16525838,0.1287122,inf,inf,inf,inf,1,1,1,1,2,0,2,1,3,1,1,1,0,0
125740000,125740000,904000,47.3977508,8.5456073,1.0940444,0.014370532,-5.7251177,-0.00014175766,0.007439493,0.0,-1.6793387,0.0062067667,-0.034792576,0.0013970141,-0.011515036,0.008892436,0.039197564,-1.039915,-0.012880423,0.0010337679,1.6092007,-0.0017392042,488.11032,5.845942,0.48104137,0.45940167,0.17096514,0.13045993,inf,inf,inf,inf,1,1,1,1,2,0,2,1,3,1,1,1,0,0
126236000,126236000,904000,47.3977508,8.5456073,0.1801513,0.011116456,-5.7188725,-0.00014175766,0.007439493,0.0,-1.9771566,0.0002108161,-0.029865881,0.008029214,-0.011515036,0.008892436,0.039197564,-0.11954782,0.0059622102,-0.06695929,1.6092016,-0.0017392042,488.11032,5.839697,0.49152678,0.46340227,0.17504631,0.13204275,inf,inf,inf,inf,1,1,1,1,2,0,2,1,3,1,1,1,0,0
126740000,126740000,904000,47.3977508,8.5456073,-0.7881286,0.0016578208,-5.717761,-0.00014175766,0.007439493,0.0,-1.7874614,0.0019664255,-0.0363523,-0.00055112515,-0.011515036,0.008892436,0.039197564,0.8877234,0.050567348,-0.016257165,1.609194,-0.0017392042,488.11032,5.8385854,0.46034577,0.4546425,0.16091795,0.1277659,inf,inf,inf,inf,1,1,1,1,2,0,2,1,3,1,1,1,0,0
127236000,127236000,904000,47.3977508,8.5456073,-1.5468007,-0.011178197,-5.720381,-0.00014175766,0.007439493,0.0,-1.163727,0.0047338977,-0.03615278,-0.002961219,-0.011515036,0.008892436,0.039197564,1.595977,0.049944222,-0.04701409,1.6087246,-0.0017392042,488.11032,5.841205,0.4699853,0.4583859,0.16391838,0.12929985,inf,inf,inf,inf,1,1,1,1,2,0,2,1,3,1,1,1,0,0
127740000,127740000,904000,47.3977508,8.5456073,-1.926952,-0.01616773,-5.7265377,-0.00014175766,0.007439493,0.0,-0.24969244,0.012894454,-0.0543633,-0.021652248,-0.011515036,0.008892436,0.039197564,1.9453534,0.005556081,-0.045905817,1.6083456,-0.0017392042,488.11032,5.847362,0.48094448,0.45900184,0.16900828,0.13041861,inf,inf,inf,inf,1,1,1,1,2,0,2,1,3,1,1,1,0,0
128236000,128236000,904000,47.3977508,8.5456073,-1.8210032,-0.011589031,-5.7392755,-0.00014175766,0.007439493,0.0,0.69748753,0.016190767,-0.045095026,-0.015215401,-0.011515036,0.008892436,0.039197564,1.8223534,0.007997499,0.05440134,1.6079702,-0.0017392042,488.11032,5.8601,0.4915806,0.46287453,0.17542467,0.13186185,inf,inf,inf,inf,1,1,1,1,2,0,2,1,3,1,1,1,0,0
128732000,128732000,904000,47.3977508,8.5456073,-1.2768173,-0.005478704,-5.748018,-0.00014175766,0.007439493,0.0,1.4680806,0.014684999,-0.022322979,0.0018086968,-0.011515036,0.008892436,0.039197564,1.2463999,0.058353797,0.034158114,1.60758,-0.0017392042,488.11032,5.868842,0.45957392,0.45721188,0.16381751,0.12782872,inf,inf,inf,inf,1,1,1,1,2,0,2,1,3,1,1,1,0,0
129236000,129236000,904000,47.3977508,8.5456073,-0.40564373,0.00010467232,-5.7400537,-0.00014175766,0.007439493,0.0,1.8860077,0.012902037,-0.007944486,0.018667366,-0.011515036,0.008892436,0.039197564,0.37261063,0.019847604,-0.016272997,1.6076583,-0.0017392042,488.11032,5.860878,0.4701372,0.45772642,0.16867305,0.12902625,inf,inf,inf,inf,1,1,1,1,2,0,2,1,3,1,1,1,0,0
129732000,129732000,904000,47.3977508,8.5456073,0.56449014,0.0100259,-5.724006,-0.00014175766,0.007439493,0.0,1.8355987,0.004835673,-0.017677145,0.01615785,-0.011515036,0.008892436,0.039197564,-0.61674595,-0.009472015,-0.06118882,1.6073364,-0.0017392042,488.11032,5.8448305,0.48042595,0.4616704,0.17139678,0.13065459,inf,inf,inf,inf,1,1,1,1,2,0,2,1,3,1,1,1,0,0
130236000,130236000,904000,47.3977508,8.5456073,1.4223441,0.022049533,-5.7198677,-0.00014175766,0.007439493,0.0,1.3114108,-0.0006706292,-0.025387479,0.0065003247,-0.011515036,0.008892436,0.039197564,-1.5023538,-0.021834988,-0.0042263414,1.607713,-0.0017392042,488.11032,5.840692,0.49200535,0.46244547,0.17360252,0.13189664,inf,inf,inf,inf,1,1,1,1,2,0,2,1,3,1,1,1,0,0
130732000,130732000,904000,47.3977508,8.5456073,1.9197804,0.023836223,-5.7196765,-0.00014175766,0.007439493,0.0,0.46043992,-0.012370009,-0.04170233,-0.00998399,-0.011515036,0.008892436,0.039197564,-1.960148,-0.01132948,-0.04195794,1.6076716,-0.0017392042,488.11032,5.840501,0.45991084,0.45697683,0.15952867,0.12793563,inf,inf,inf,inf,1,1,1,1,2,0,2,1,3,1,1,1,0,0
131236000,131236000,904000,47.3977508,8.5456073,1.9840467,0.028854609,-5.730156,-0.00014175766,0.007439493,0.0,-0.5062155,-0.015023185,-0.04920748,-0.019052763,-0.011515036,0.008892436,0.039197564,-1.938532,-0.033085566,0.013350508,1.6080729,-0.0017392042,488.11032,5.8509803,0.4702831,0.45751536,0.16449721,0.12906697,inf,inf,inf,inf,1,1,1,1,2,0,2,1,3,1,1,1,0,0
131740000,131740000,904000,47.3977508,8.5456073,1.5650163,0.03509632,-5.732665,-0.00014175766,0.007439493,0.0,-1.3712376,-0.020483043,-0.031717006,0.0006758614,-0.011515036,0.008892436,0.039197564,-1.5002872,-0.03862976,0.003578141,1.6089084,-0.0017392042,488.11032,5.8534894,0.4810623,0.46193236,0.17037709,0.13070597,inf,inf,inf,inf,1,1,1,1,2,0,2,1,3,1,1,1,0,0
132236000,132236000,904000,47.3977508,8.5456073,0.7764357,0.036023848,-5.7279935,-0.00014175766,0.007439493,0.0,-1.913752,-0.02458635,-0.02134502,0.0121058365,-0.011515036,0.008892436,0.039197564,-0.69389313,-0.029118482,-0.008686445,1.6090907,-0.0017392042,488.11032,5.848818,0.491504,0.46169952,0.17531927,0.13166185,inf,inf,inf,inf,1,1,1,1,2,0,2,1,3,1,1,1,0,0
132732000,132732000,904000,47.3977508,8.5456073,-0.19645013,0.04099886,-5.7194495,-0.00014175766,0.007439493,0.0,-2.0077512,-0.024605298,-0.028107092,0.007455207,-0.011515036,0.008892436,0.039197564,0.31945437,-0.051866382,-0.056969,1.6091849,-0.0017392042,488.11032,5.840274,0.45956987,0.45618466,0.16138808,0.12777458,inf,inf,inf,inf,1,1,1,1,2,0,2,1,3,1,1,1,0,0
133236000,133236000,904000,47.3977508,8.5456073,-1.123158,0.050238546,-5.7188983,-0.00014175766,0.007439493,0.0,-1.6011978,-0.031804256,-0.03522934,-0.000822206,-0.011515036,0.008892436,0.039197564,1.248863,-0.060482107,0.004409812,1.6088941,-0.0017392042,488.11032,5.8397226,0.46997097,0.46059334,0.1644027,0.12953001,inf,inf,inf,inf,1,1,1,1,2,0,2,1,3,1,1,1,0,0
133732000,133732000,904000,47.3977508,8.5456073,-1.7518435,0.060777806,-5.734149,-0.00014175766,0.007439493,0.0,-0.8229603,-0.034126986,-0.040409997,-0.01753684,-0.011515036,0.008892436,0.039197564,1.8677624,-0.04558508,0.011651776,1.6082577,-0.0017392042,488.11032,5.8549733,0.48006195,0.46029288,0.16801417,0.13047513,inf,inf,inf,inf,1,1,1,1,2,0,2,1,3,1,1,1,0,0
134236000,134236000,904000,47.3977508,8.5456073,-1.9480269,0.06912327,-5.755388,-0.00014175766,0.007439493,0.0,0.15247883,-0.042639118,-0.033996604,-0.021556133,-0.011515036,0.008892436,0.039197564,1.974275,-0.08576594,0.039209608,1.6078563,-0.0017392042,488.11032,5.876212,0.49152026,0.46482143,0.17398894,0.13211119,inf,inf,inf,inf,1,1,1,1,2,0,2,1,3,1,1,1,0,0
134732000,134732000,904000,47.3977508,8.5456073,-1.6537994,0.063678876,-5.764684,-0.00014175766,0.007439493,0.0,1.0662408,-0.051065177,-0.012817193,-0.0035364786,-0.011515036,0.008892436,0.039197564,1.6282141,-0.0382321,0.09396765,1.607983,-0.0017392042,488.11032,5.8855085,0.4595482,0.45526963,0.16296579,0.12755227,inf,inf,inf,inf,1,1,1,1,2,0,2,1,3,1,1,1,0,0
135236000,135236000,904000,47.3977508,8.5456073,-0.94865584,0.066857874,-5.7757287,-0.00014175766,0.007439493,0.0,1.7184594,-0.049282975,0.014920316,0.012172816,-0.011515036,0.008892436,0.039197564,0.9140473,-0.012809526,0.049967315,1.6081039,-0.0017392042,488.11032,5.896553,0.47006541,0.45974267,0.16884913,0.12926713,inf,inf,inf,inf,1,1,1,1,2,0,2,1,3,1,1,1,0,0
135732000,135732000,904000,47.3977508,8.5456073,-0.012232591,0.06376368,-5.774083,-0.00014175766,0.007439493,0.0,1.947009,-0.050973117,0.026681013,0.018451788,-0.011515036,0.008892436,0.039197564,-0.046712868,-0.038195573,0.061235387,1.6077875,-0.0017392042,488.11032,5.8949075,0.48034152,0.45959982,0.17256588,0.13030888,inf,inf,inf,inf,1,1,1,1,2,0,2,1,3,1,1,1,0,0
136236000,136236000,904000,47.3977508,8.5456073,0.9370529,0.052275512,-5.7687306,-0.00014175766,0.007439493,0.0,1.6799445,-0.05118267,0.026033945,0.016109956,-0.011515036,0.008892436,0.039197564,-1.0735347,-0.03033671,-0.019220633,1.6076124,-0.0017392042,488.11032,5.889555,0.49198568,0.46423724,0.1749773,0.13209523,inf,inf,inf,inf,1,1,1,1,2,0,2,1,3,1,1,1,0,0
136732000,136732000,904000,47.3977508,8.5456073,1.6478015,0.047213946,-5.7604303,-0.00014175766,0.007439493,0.0,0.99775463,-0.04614147,0.01596445,0.0082295565,-0.011515036,0.008892436,0.039197564,-1.7416353,-0.01767253,-0.023758968,1.6077331,-0.0017392042,488.11032,5.8812547,0.45986778,0.4549153,0.1598953,0.12766223,inf,inf,inf,inf,1,1,1,1,2,0,2,1,3,1,1,1,0,0
137236000,137236000,904000,47.3977508,8.5456073,1.9695479,0.0540596,-5.7663774,-0.00014175766,0.007439493,0.0,0.06800977,-0.039162256,-0.0058778957,-0.015922524,-0.011515036,0.008892436,0.039197564,-1.9389445,-0.020631587,0.011581927,1.6080637,-0.0017392042,488.11032,5.887202,0.4703172,0.45562056,0.16385482,0.12885582,inf,inf,inf,inf,1,1,1,1,2,0,2,1,3,1,1,1,0,0
137732000,137732000,904000,47.3977508,8.5456073,1.8143878,0.06240533,-5.7717276,-0.00014175766,0.007439493,0.0,-0.8676269,-0.040446512,0.0028393813,-0.005241427,-0.011515036,0.008892436,0.039197564,-1.8088078,0.0028303473,0.03979634,1.60843,-0.0017392042,488.11032,5.892552,0.4802691,0.45953223,0.16895692,0.13035996,inf,inf,inf,inf,1,1,1,1,2,0,2,1,3,1,1,1,0,0
138236000,138236000,904000,47.3977508,8.5456073,1.2047343,0.064609244,-5.775291,-0.00014175766,0.007439493,0.0,-1.6192487,-0.047509067,0.018657383,0.007200665,-0.011515036,0.008892436,0.039197564,-1.1634486,-0.05252026,0.0058542932,1.6088568,-0.0017392042,488.11032,5.8961153,0.49152878,0.46035892,0.1747558,0.13154085,inf,inf,inf,inf,1,1,1,1,2,0,2,1,3,1,1,1,0,0
138736000,138732000,904000,47.3977508,8.5456073,0.30958086,0.06559792,-5.776378,-0.00014175766,0.007439493,0.0,-1.9666839,-0.052586924,0.029218905,0.011992593,-0.011515036,0.008892436,0.039197564,-0.21732906,-0.03804524,-0.0008940696,1.6091536,-0.0017392042,488.11032,5.8972025,0.45960686,0.4550744,0.16161554,0.1276753,inf,inf,inf,inf,1,1,1,1,2,0,2,1,3,1,1,1,0,0
139240000,139236000,904000,47.3977508,8.5456073,-0.66493356,0.06923186,-5.7855315,-0.00014175766,0.007439493,0.0,-1.8318878,-0.05563645,0.031395152,0.0026432,-0.011515036,0.008892436,0.039197564,0.7314077,-0.028853478,0.017506069,1.6088587,-0.0017392042,488.11032,5.906356,0.46996096,0.45591396,0.16489653,0.12898166,inf,inf,inf,inf,1,1,1,1,2,0,2,1,3,1,1,1,0,0
139736000,139732000,904000,47.3977508,8.5456073,-1.462593,0.06754013,-5.7960153,-0.00014175766,0.007439493,0.0,-1.2528359,-0.055949602,0.031996068,-0.0059012603,-0.011515036,0.008892436,0.039197564,1.5410634,-0.051551424,0.0040251757,1.6086174,-0.0017392042,488.11032,5.9168396,0.48003173,0.45986214,0.16789107,0.13055675,inf,inf,inf,inf,1,1,1,1,2,0,2,1,3,1,1,1,0,0
140240000,140236000,904000,47.3977508,8.5456073,-1.9125592,0.060966697,-5.8180947,-0.00014175766,0.007439493,0.0,-0.36561814,-0.057468753,0.03386393,-0.018384399,-0.011515036,0.008892436,0.039197564,1.9637289,0.013420314,0.037636604,1.6082319,-0.0017392042,488.11032,5.938919,0.4914674,0.46453062,0.17278065,0.13222672,inf,inf,inf,inf,1,1,1,1,2,0,2,1,3,1,1,1,0,0
140736000,140732000,904000,47.3977508,8.5456073,-1.8962352,0.057566624,-5.835857,-0.00014175766,0.007439493,0.0,0.5945356,-0.05594441,0.052415967,-0.007155856,-0.011515036,0.008892436,0.039197564,1.9223478,-0.000734959,0.05587283,1.6079487,-0.0017392042,488.11032,5.9566813,0.4596181,0.45505437,0.16173106,0.12765694,inf,inf,inf,inf,1,1,1,1,2,0,2,1,3,1,1,1,0,0
141240000,141236000,904000,47.3977508,8.5456073,-1.4240628,0.056229647,-5.8475547,-0.00014175766,0.007439493,0.0,1.4268746,-0.053839244,0.07227245,0.00379515,-0.011515036,0.008892436,0.039197564,1.3704484,-0.0067103095,0.061728988,1.6081543,-0.0017392042,488.11032,5.968379,0.47009674,0.4594743,0.16828659,0.1292961,inf,inf,inf,inf,1,1,1,1,2,0,2,1,3,1,1,1,0,0
141736000,141732000,904000,47.3977508,8.5456073,-0.6055154,0.055846274,-5.851249,-0.00014175766,0.007439493,0.0,1.9109854,-0.050798967,0.09217893,0.016166644,-0.011515036,0.008892436,0.039197564,0.5674146,-0.009646086,0.08346885,1.607994,-0.0017392042,488.11032,5.9720736,0.48034042,0.45932359,0.17318243,0.13027287,inf,inf,inf,inf,1,1,1,1,2,0,2,1,3,1,1,1,0,0
142240000,142236000,904000,47.3977508,8.5456073,0.3723433,0.05149958,-5.835394,-0.00014175766,0.007439493,0.0,1.9299272,-0.051756248,0.09101196,0.022328826,-0.011515036,0.008892436,0.039197564,-0.4819877,-0.036591966,-0.023351049,1.6079284,-0.0017392042,488.11032,5.9562182,0.49201584,0.46383578,0.17643377,0.13199763,inf,inf,inf,inf,1,1,1,1,2,0,2,1,3,1,1,1,0,0
142736000,142732000,904000,47.3977508,8.5456073,1.2377468,0.05303989,-5.824997,-0.00014175766,0.007439493,0.0,1.4698027,-0.047389247,0.08362585,0.017999223,-0.011515036,0.008892436,0.039197564,-1.3588524,0.011854921,-0.01288019,1.6075236,-0.0017392042,488.11032,5.9458213,0.459859,0.45806697,0.16084017,0.12801616,inf,inf,inf,inf,1,1,1,1,2,0,2,1,3,1,1,1,0,0
143240000,143236000,904000,47.3977508,8.5456073,1.8054459,0.053696223,-5.8196044,-0.00014175766,0.007439493,0.0,0.6500923,-0.046364192,0.064447984,0.00095223193,-0.011515036,0.008892436,0.039197564,-1.9096606,-0.027070621,-0.015190802,1.6077881,-0.0017392042,488.11032,5.9404287,0.47037983,0.45861787,0.1638352,0.12920181,inf,inf,inf,inf,1,1,1,1,2,0,2,1,3,1,1,1,0,0
143736000,143732000,904000,47.3977508,8.5456073,1.9137199,0.05379687,-5.8180914,-0.00014175766,0.007439493,0.0,-0.31541616,-0.04417239,0.038386244,-0.017983196,-0.011515036,0.008892436,0.039197564,-1.9587829,-0.03919449,0.040221024,1.6081007,-0.0017392042,488.11032,5.9389157,0.48038128,0.4624095,0.16822594,0.13068669,inf,inf,inf,inf,1,1,1,1,2,0,2,1,3,1,1,1,0,0
144240000,144236000,904000,47.3977508,8.5456073,1.5529138,0.054951247,-5.8157396,-0.00014175766,0.007439493,0.0,-1.2025851,-0.04423765,0.046415098,-0.0015480273,-0.011515036,0.008892436,0.039197564,-1.5708028,-0.040379494,0.05735643,1.6088352,-0.0017392042,488.11032,5.936564,0.49162644,0.462956,0.17404097,0.13180152,inf,inf,inf,inf,1,1,1,1,2,0,2,1,3,1,1,1,0,0
144736000,144732000,904000,47.3977508,8.5456073,0.8202839,0.0505664,-5.8082433,-0.00014175766,0.007439493,0.0,-1.7931389,-0.048443407,0.05437482,0.0119093,-0.011515036,0.008892436,0.039197564,-0.81275827,0.010237228,-0.0017974525,1.609112,-0.0017392042,488.11032,5.9290676,0.45968884,0.45744622,0.16172042,0.1278757,inf,inf,inf,inf,1,1,1,1,2,0,2,1,3,1,1,1,0,0
145240000,145236000,904000,47.3977508,8.5456073,-0.13382478,0.052050047,-5.78825,-0.00014175766,0.007439493,0.0,-1.9532697,-0.04724909,0.039432857,0.009833971,-0.011515036,0.008892436,0.039197564,0.15393446,-0.050698478,-0.082354054,1.6090043,-0.0017392042,488.11032,5.9090743,0.46999574,0.45803645,0.16572401,0.12914357,inf,inf,inf,inf,1,1,1,1,2,0,2,1,3,1,1,1,0,0
145736000,145732000,904000,47.3977508,8.5456073,-1.0486364,0.051454823,-5.777768,-0.00014175766,0.007439493,0.0,-1.6199384,-0.042980563,0.029853307,0.006841162,-0.011515036,0.008892436,0.039197564,1.1294602,-0.00323393,0.016184522,1.6087543,-0.0017392042,488.11032,5.8985925,0.48017487,0.45803964,0.16865149,0.13024397,inf,inf,inf,inf,1,1,1,1,2,0,2,1,3,1,1,1,0,0
146240000,146236000,904000,47.3977508,8.5456073,-1.7080597,0.04692245,-5.7671986,-0.00014175766,0.007439493,0.0,-0.8803995,-0.038917366,0.005087437,-0.009346829,-0.011515036,0.008892436,0.039197564,1.7820566,-0.01656248,-0.040340234,1.6083841,-0.0017392042,488.11032,5.888023,0.49160913,0.46273604,0.1725737,0.1319808,inf,inf,inf,inf,1,1,1,1,2,0,2,1,3,1,1,1,0,0
146736000,146732000,904000,47.3977508,8.5456073,-1.9444237,0.038412433,-5.781932,-0.00014175766,0.007439493,0.0,0.05261201,-0.03756797,-0.010450046,-0.029472923,-0.011515036,0.008892436,0.039197564,1.9644449,-0.014628952,0.010765157,1.6084037,-0.0017392042,488.11032,5.902756,0.4597028,0.45726538,0.16081524,0.12798946,inf,inf,inf,inf,1,1,1,1,2,0,2,1,3,1,1,1,0,0
147240000,147236000,904000,47.3977508,8.5456073,-1.7116288,0.027996616,-5.79134,-0.00014175766,0.007439493,0.0,0.9828082,-0.031977363,0.0045109577,-0.013546163,-0.011515036,0.008892436,0.039197564,1.6790756,0.00023131723,0.08011329,1.6081653,-0.0017392042,488.11032,5.912164,0.47028798,0.45786798,0.1673902,0.12913288,inf,inf,inf,inf,1,1,1,1,2,0,2,1,3,1,1,1,0,0
147736000,147732000,904000,47.3977508,8.5456073,-1.0628314,0.01837503,-5.786845,-0.00014175766,0.007439493,0.0,1.6637619,-0.025445953,0.021085368,0.008195697,-0.011515036,0.008892436,0.039197564,1.0265828,-0.044423908,0.012061558,1.6077207,-0.0017392042,488.11032,5.9076695,0.4805056,0.4616909,0.17313805,0.13062881,inf,inf,inf,inf,1,1,1,1,2,0,2,1,3,1,1,1,0,0
148240000,148236000,904000,47.3977508,8.5456073,-0.14438543,0.006247477,-5.7675085,-0.00014175766,0.007439493,0.0,1.9548225,-0.019455573,0.019436765,0.017682666,-0.011515036,0.008892436,0.039197564,0.09223364,0.035934497,-0.013644806,1.6077882,-0.0017392042,488.11032,5.888333,0.49231493,0.4622101,0.17765379,0.13179444,inf,inf,inf,inf,1,1,1,1,2,0,2,1,3,1,1,1,0,0
148736000,148732000,904000,47.3977508,8.5456073,0.8047615,-0.00784524,-5.740403,-0.00014175766,0.007439493,0.0,1.7596008,-0.009025325,0.005357128,0.0200255,-0.011515036,0.008892436,0.039197564,-0.89312035,0.01006096,-0.046229918,1.6074991,-0.0017392042,488.11032,5.8612275,0.4601179,0.45671263,0.16225067,0.12790833,inf,inf,inf,inf,1,1,1,1,2,0,2,1,3,1,1,1,0,0
149240000,149236000,904000,47.3977508,8.5456073,1.5749942,-0.010174811,-5.7150874,-0.00014175766,0.007439493,0.0,1.1200002,0.005339121,-0.02000435,0.010248773,-0.011515036,0.008892436,0.039197564,-1.6416405,0.024959516,-0.09070336,1.6076982,-0.0017392042,488.11032,5.8359118,0.47079873,0.4574111,0.16481304,0.12915981,inf,inf,inf,inf,1,1,1,1,2,0,2,1,3,1,1,1,0,0
149736000,149732000,904000,47.3977508,8.5456073,1.937514,-0.010247207,-5.7052436,-0.00014175766,0.007439493,0.0,0.21226014,0.013662655,-0.06010923,-0.019613426,-0.011515036,0.008892436,0.039197564,-2.0085227,0.032434646,-0.14430656,1.6080792,-0.0017392042,488.11032,5.826068,0.48085403,0.4613139,0.16826881,0.13066885,inf,inf,inf,inf,1,1,1,1,2,0,2,1,3,1,1,1,0,0
150240000,150236000,904000,47.3977508,8.5456073,1.8245013,-0.011427932,-5.712152,-0.00014175766,0.007439493,0.0,-0.749465,0.01531181,-0.064360976,-0.021211302,-0.011515036,0.008892436,0.039197564,-1.8349539,-0.009535709,0.024561768,1.6086466,-0.0017392042,488.11032,5.8329763,0.49210733,0.46199936,0.17362314,0.13177785,inf,inf,inf,inf,1,1,1,1,2,0,2,1,3,1,1,1,0,0
150736000,150732000,904000,47.3977508,8.5456073,1.271988,-0.0074676354,-5.7146335,-0.00014175766,0.007439493,0.0,-1.5172181,0.020865053,-0.048422292,-0.004623275,-0.011515036,0.008892436,0.039197564,-1.238793,0.012428004,0.015360302,1.6091883,-0.0017392042,488.11032,5.835458,0.46000716,0.4565443,0.16160688,0.12780957,inf,inf,inf,inf,1,1,1,1,2,0,2,1,3,1,1,1,0,0
151240000,151236000,904000,47.3977508,8.5456073,0.39315966,-0.010689867,-5.722296,-0.00014175766,0.007439493,0.0,-1.9237075,0.017726822,-0.031966098,0.0030558999,-0.011515036,0.008892436,0.039197564,-0.36736965,-0.00027165512,0.030032357,1.6094899,-0.0017392042,488.11032,5.8431206,0.47026807,0.45718074,0.16614634,0.12904224,inf,inf,inf,inf,1,1,1,1,2,0,2,1,3,1,1,1,0,0
151736000,151732000,904000,47.3977508,8.5456073,-0.5763354,-0.019037846,-5.7202606,-0.00014175766,0.007439493,0.0,-1.8560295,0.018119996,-0.031528782,0.002705549,-0.011515036,0.008892436,0.039197564,0.6618036,0.002938206,-0.033195127,1.6092458,-0.0017392042,488.11032,5.841085,0.48026234,0.46114045,0.16922924,0.13066767,inf,inf,inf,inf,1,1,1,1,2,0,2,1,3,1,1,1,0,0
152232000,152228000,904000,47.3977508,8.5456073,-1.4104314,-0.020914843,-5.715872,-0.00014175766,0.007439493,0.0,-1.3282462,0.026413728,-0.03619521,0.0003956725,-0.011515036,0.008892436,0.039197564,1.519255,0.040441256,-0.044438053,1.6087761,-0.0017392042,488.11032,5.836696,0.49088904,0.4610929,0.1722667,0.13169307,inf,inf,inf,inf,1,1,1,1,2,0,2,1,3,1,1,1,0,0
152736000,152732000,904000,47.3977508,8.5456073,-1.9072199,-0.018208936,-5.721439,-0.00014175766,0.007439493,0.0,-0.46717945,0.032130755,-0.055986956,-0.020971548,-0.011515036,0.008892436,0.039197564,1.946744,-0.008477465,-0.006954185,1.6083318,-0.0017392042,488.11032,5.842263,0.45972914,0.45627093,0.15996192,0.12786818,inf,inf,inf,inf,1,1,1,1,2,0,2,1,3,1,1,1,0,0
153240000,153236000,904000,47.3977508,8.5456073,-1.9436073,-0.023883544,-5.730506,-0.00014175766,0.007439493,0.0,0.50003177,0.030247753,-0.053951014,-0.016965073,-0.011515036,0.008892436,0.039197564,1.9346256,0.03991619,0.018706543,1.6077777,-0.0017392042,488.11032,5.8513303,0.4701616,0.45684576,0.16610467,0.12898536,inf,inf,inf,inf,1,1,1,1,2,0,2,1,3,1,1,1,0,0
153736000,153732000,904000,47.3977508,8.5456073,-1.5072696,-0.039075673,-5.7325726,-0.00014175766,0.007439493,0.0,1.3417114,0.030390397,-0.037792917,0.0007689531,-0.011515036,0.008892436,0.039197564,1.429816,0.051356513,0.0030267981,1.6075335,-0.0017392042,488.11032,5.853397,0.48031592,0.46069464,0.17239897,0.13046153,inf,inf,inf,inf,1,1,1,1,2,0,2,1,3,1,1,1,0,0
154232000,154228000,904000,47.3977508,8.5456073,-0.70960236,-0.05513597,-5.7349157,-0.00014175766,0.007439493,0.0,1.8644433,0.039567817,-0.022467095,0.010093705,-0.011515036,0.008892436,0.039197564,0.645198,0.10780957,0.021534039,1.6074934,-0.0017392042,488.11032,5.85574,0.491045,0.46452206,0.1775541,0.13196336,inf,inf,inf,inf,1,1,1,1,2,0,2,1,3,1,1,1,0,0
154736000,154732000,904000,47.3977508,8.5456073,0.27438822,-0.058018163,-5.725496,-0.00014175766,0.007439493,0.0,1.9404652,0.052045446,-0.021661958,0.012399966,-0.011515036,0.008892436,0.039197564,-0.31612659,0.036804147,-0.03579538,1.6072694,-0.0017392042,488.11032,5.84632,0.45978,0.45574337,0.16306424,0.12769489,inf,inf,inf,inf,1,1,1,1,2,0,2,1,3,1,1,1,0,0
155240000,155236000,904000,47.3977508,8.5456073,1.2006192,-0.056061048,-5.722527,-0.00014175766,0.007439493,0.0,1.5250903,0.057026148,-0.020406269,0.011173172,-0.011515036,0.008892436,0.039197564,-1.3330464,0.036680415,-0.0025108454,1.6073025,-0.0017392042,488.11032,5.8433514,0.47038388,0.4565196,0.16542827,0.12898658,inf,inf,inf,inf,1,1,1,1,2,0,2,1,3,1,1,1,0,0
155736000,155732000,904000,47.3977508,8.5456073,1.8124723,-0.048886094,-5.723537,-0.00014175766,0.007439493,0.0,0.7355926,0.05759918,-0.031882614,-0.0037914787,-0.011515036,0.008892436,0.039197564,-1.8683082,0.00611729,-0.055479813,1.6076103,-0.0017392042,488.11032,5.8443613,0.48051974,0.4606083,0.1679851,0.13058163,inf,inf,inf,inf,1,1,1,1,2,0,2,1,3,1,1,1,0,0
156240000,156236000,904000,47.3977508,8.5456073,1.9812967,-0.040863458,-5.729919,-0.00014175766,0.007439493,0.0,-0.24095401,0.05591542,-0.045290746,-0.01722917,-0.011515036,0.008892436,0.039197564,-1.9918506,0.011977928,-0.0020656732,1.6080433,-0.0017392042,488.11032,5.8507433,0.49195662,0.4614494,0.17269407,0.13175066,inf,inf,inf,inf,1,1,1,1,2,0,2,1,3,1,1,1,0,0
156736000,156732000,904000,47.3977508,8.5456073,1.6762565,-0.031154206,-5.7455635,-0.00014175766,0.007439493,0.0,-1.1401936,0.050875783,-0.025739096,-0.0060232813,-0.011515036,0.008892436,0.039197564,-1.6597157,0.014755351,0.07508974,1.6087534,-0.0017392042,488.11032,5.866388,0.46001694,0.45616516,0.16095786,0.12781286,inf,inf,inf,inf,1,1,1,1,2,0,2,1,3,1,1,1,0,0
157240000,157236000,904000,47.3977508,8.5456073,0.9738846,-0.016622532,-5.7431483,-0.00014175766,0.007439493,0.0,-1.7828202,0.044584796,-0.012041399,0.008639289,-0.011515036,0.008892436,0.039197564,-0.89904165,-0.03127301,-0.015715135,1.6094482,-0.0017392042,488.11032,5.8639727,0.47025687,0.4570581,0.16620526,0.12906727,inf,inf,inf,inf,1,1,1,1,2,0,2,1,3,1,1,1,0,0
157736000,157732000,904000,47.3977508,8.5456073,0.043328524,-0.0075449846,-5.740766,-0.00014175766,0.007439493,0.0,-1.9999803,0.035241544,-0.008347968,0.009945316,-0.011515036,0.008892436,0.039197564,0.025393324,0.017855534,0.0037411225,1.6093606,-0.0017392042,488.11032,5.8615904,0.48021504,0.46108866,0.16998094,0.13067725,inf,inf,inf,inf,1,1,1,1,2,0,2,1,3,1,1,1,0,0
158240000,158236000,904000,47.3977508,8.5456073,-0.9071804,-0.008066427,-5.7367487,-0.00014175766,0.007439493,0.0,-1.7276474,0.028397722,-0.01804192,0.0012855926,-0.011515036,0.008892436,0.039197564,1.0656366,0.026825042,-0.007935799,1.6090457,-0.0017392042,488.11032,5.857573,0.49159756,0.46178964,0.17318301,0.1318804,inf,inf,inf,inf,1,1,1,1,2,0,2,1,3,1,1,1,0,0
158736000,158732000,904000,47.3977508,8.5456073,-1.6137131,-0.011643445,-5.73862,-0.00014175766,0.007439493,0.0,-1.0418526,0.028324375,-0.024429642,-0.006519189,-0.011515036,0.008892436,0.039197564,1.7293018,0.03395529,-0.004277564,1.6085085,-0.0017392042,488.11032,5.859444,0.4596073,0.45623913,0.159549,0.1278927,inf,inf,inf,inf,1,1,1,1,2,0,2,1,3,1,1,1,0,0
159240000,159236000,904000,47.3977508,8.5456073,-1.9310447,-0.024612213,-5.751182,-0.00014175766,0.007439493,0.0,-0.10591117,0.026206123,-0.040865317,-0.026786141,-0.011515036,0.008892436,0.039197564,1.9340773,0.06263371,0.02957694,1.6080151,-0.0017392042,488.11032,5.8720064,0.4700355,0.46063775,0.16479504,0.12952009,inf,inf,inf,inf,1,1,1,1,2,0,2,1,3,1,1,1,0,0
159736000,159732000,904000,47.3977508,8.5456073,-1.7616882,-0.031614203,-5.7568126,-0.00014175766,0.007439493,0.0,0.8325858,0.034999296,-0.025061183,-0.006873671,-0.011515036,0.008892436,0.039197564,1.7407689,0.024959195,0.0015608965,1.6078322,-0.0017392042,488.11032,5.877637,0.4802834,0.46042415,0.1710963,0.13042395,inf,inf,inf,inf,1,1,1,1,2,0,2,1,3,1,1,1,0,0
160240000,160236000,904000,47.3977508,8.5456073,-1.1466657,-0.038234748,-5.753216,-0.00014175766,0.007439493,0.0,1.5751373,0.033502687,-0.013181252,0.007422908,-0.011515036,0.008892436,0.039197564,1.0953885,0.0012701929,0.0035827977,1.6074818,-0.0017392042,488.11032,5.87404,0.49185506,0.46500504,0.17755635,0.1320853,inf,inf,inf,inf,1,1,1,1,2,0,2,1,3,1,1,1,0,0
160736000,160736000,904000,47.3977508,8.5456073,-0.24617893,-0.04854268,-5.7413507,-0.00014175766,0.007439493,0.0,1.9158884,0.036916114,-0.009534979,0.0154832695,-0.011515036,0.008892436,0.039197564,0.18231441,0.043219723,-0.018792225,1.6073266,-0.0017392042,488.11032,5.862175,0.4598673,0.4554611,0.16400999,0.12761423,inf,inf,inf,inf,1,1,1,1,2,0,2,1,3,1,1,1,0,0
161240000,161240000,904000,47.3977508,8.5456073,0.720322,-0.04981555,-5.7414093,-0.00014175766,0.007439493,0.0,1.7750658,0.04659103,-0.0057360767,0.012356767,-0.011515036,0.008892436,0.039197564,-0.7804346,0.00021629965,0.05451962,1.6072143,-0.0017392042,488.11032,5.8622336,0.47062758,0.46006706,0.16685419,0.12940335,inf,inf,inf,inf,1,1,1,1,2,0,2,1,3,1,1,1,0,0
161736000,161736000,904000,47.3977508,8.5456073,1.5064431,-0.03764427,-5.735535,-0.00014175766,0.007439493,0.0,1.1995083,0.046960607,-0.0055087395,0.011306793,-0.011515036,0.008892436,0.039197564,-1.5999036,0.018341597,-0.068440095,1.6073152,-0.0017392042,488.11032,5.8563595,0.48089275,0.45988795,0.1688801,0.1304058,inf,inf,inf,inf,1,1,1,1,2,0,2,1,3,1,1,1,0,0
162240000,162240000,904000,47.3977508,8.5456073,1.9435954,-0.028858472,-5.7264557,-0.00014175766,0.007439493,0.0,0.30899265,0.04064058,-0.031661116,-0.0069589317,-0.011515036,0.008892436,0.039197564,-1.9710429,-0.03006034,-0.12706405,1.6076455,-0.0017392042,488.11032,5.84728,0.49229282,0.46435085,0.17243922,0.13205548,inf,inf,inf,inf,1,1,1,1,2,0,2,1,3,1,1,1,0,0
162736000,162736000,904000,47.3977508,8.5456073,1.9046929,-0.019638766,-5.713645,-0.00014175766,0.007439493,0.0,-0.65313864,0.031953607,-0.058783073,-0.015460738,-0.011515036,0.008892436,0.039197564,-1.8837949,-0.060398027,0.017235054,1.6083896,-0.0017392042,488.11032,5.8344693,0.4601528,0.45481077,0.16029523,0.12751144,inf,inf,inf,inf,1,1,1,1,2,0,2,1,3,1,1,1,0,0
163240000,163240000,904000,47.3977508,8.5456073,1.4161994,-0.009623367,-5.7016954,-0.00014175766,0.007439493,0.0,-1.4701191,0.028223686,-0.059045173,-0.001984506,-0.011515036,0.008892436,0.039197564,-1.3667084,-0.028156586,-0.015651805,1.6089538,-0.0017392042,488.11032,5.82252,0.47040594,0.45542818,0.16586792,0.12870257,inf,inf,inf,inf,1,1,1,1,2,0,2,1,3,1,1,1,0,0
163736000,163736000,904000,47.3977508,8.5456073,0.5842179,0.009604684,-5.69915,-0.00014175766,0.007439493,0.0,-1.9374347,0.017766986,-0.048751913,0.0077236923,-0.011515036,0.008892436,0.039197564,-0.5224486,-0.05500676,0.0020489094,1.6091138,-0.0017392042,488.11032,5.8199744,0.48045188,0.459334,0.17044301,0.13030668,inf,inf,inf,inf,1,1,1,1,2,0,2,1,3,1,1,1,0,0
164232000,164232000,904000,47.3977508,8.5456073,-0.39300674,0.028494444,-5.6975117,-0.00014175766,0.007439493,0.0,-1.9418453,0.006342467,-0.054005463,2.9711984e-05,-0.011515036,0.008892436,0.039197564,0.47341195,-0.022038598,-0.05761906,1.6087897,-0.0017392042,488.11032,5.818336,0.49089268,0.46334124,0.17370641,0.1319328,inf,inf,inf,inf,1,1,1,1,2,0,2,1,3,1,1,1,0,0
164736000,164736000,904000,47.3977508,8.5456073,-1.2793175,0.0417233,-5.700132,-0.00014175766,0.007439493,0.0,-1.460841,-0.008340504,-0.05791405,-0.0061531956,-0.011515036,0.008892436,0.039197564,1.402299,-0.043375123,-0.03567617,1.6086627,-0.0017392042,488.11032,5.820956,0.45994025,0.45474902,0.16001153,0.12771738,inf,inf,inf,inf,1,1,1,1,2,0,2,1,3,1,1,1,0,0
165232000,165232000,904000,47.3977508,8.5456073,-1.829037,0.043999236,-5.7158513,-0.00014175766,0.007439493,0.0,-0.6418813,-0.023127256,-0.068236955,-0.027458427,-0.011515036,0.008892436,0.039197564,1.8207843,-0.04364378,-0.017791985,1.6085049,-0.0017392042,488.11032,5.8366756,0.46963277,0.45857847,0.16403164,0.12925848,inf,inf,inf,inf,1,1,1,1,2,0,2,1,3,1,1,1,0,0
165736000,165736000,904000,47.3977508,8.5456073,-1.9326366,0.04419258,-5.737984,-0.00014175766,0.007439493,0.0,0.32625705,-0.030310739,-0.052690092,-0.020649813,-0.011515036,0.008892436,0.039197564,1.9132721,-0.040212993,0.039531846,1.6082207,-0.0017392042,488.11032,5.8588085,0.48052576,0.45927194,0.16998757,0.13038234,inf,inf,inf,inf,1,1,1,1,2,0,2,1,3,1,1,1,0,0
166240000,166240000,904000,47.3977508,8.5456073,-1.5653226,0.043167483,-5.74749,-0.00014175766,0.007439493,0.0,1.2108437,-0.03264512,-0.030275786,-0.0016686281,-0.011515036,0.008892436,0.039197564,1.5233603,-0.03313519,0.05289353,1.6079481,-0.0017392042,488.11032,5.8683143,0.49203244,0.4639984,0.17680873,0.13204679,inf,inf,inf,inf,1,1,1,1,2,0,2,1,3,1,1,1,0,0
166736000,166736000,904000,47.3977508,8.5456073,-0.81347156,0.042563733,-5.7474527,-0.00014175766,0.007439493,0.0,1.7995256,-0.032965723,-0.009252358,0.015744561,-0.011515036,0.008892436,0.039197564,0.7854645,-0.02357496,0.036680136,1.6076808,-0.0017392042,488.11032,5.868277,0.45984775,0.45448864,0.16410974,0.1275192,inf,inf,inf,inf,1,1,1,1,2,0,2,1,3,1,1,1,0,0
167240000,167240000,904000,47.3977508,8.5456073,0.15860067,0.042143043,-5.739629,-0.00014175766,0.007439493,0.0,1.9455488,-0.035852343,-0.0062948675,0.017629808,-0.011515036,0.008892436,0.039197564,-0.2458071,0.015192024,-0.04938617,1.6074251,-0.0017392042,488.11032,5.860453,0.47041762,0.45887092,0.1678444,0.12924951,inf,inf,inf,inf,1,1,1,1,2,0,2,1,3,1,1,1,0,0
167736000,167736000,904000,47.3977508,8.5456073,1.0754129,0.03857276,-5.728277,-0.00014175766,0.007439493,0.0,1.6012622,-0.035377737,-0.01136007,0.016124513,-0.011515036,0.008892436,0.039197564,-1.1809728,-0.018727848,-0.035764646,1.6075643,-0.0017392042,488.11032,5.8491015,0.4806523,0.46268332,0.1699574,0.13082215,inf,inf,inf,inf,1,1,1,1,2,0,2,1,3,1,1,1,0,0
168240000,168240000,904000,47.3977508,8.5456073,1.741462,0.040199816,-5.7203503,-0.00014175766,0.007439493,0.0,0.8562862,-0.034114137,-0.030576525,-0.0002577915,-0.011515036,0.008892436,0.039197564,-1.7937875,-0.06471923,-0.072580755,1.6078647,-0.0017392042,488.11032,5.8411746,0.4921119,0.4631663,0.17267063,0.1319457,inf,inf,inf,inf,1,1,1,1,2,0,2,1,3,1,1,1,0,0
168736000,168736000,904000,47.3977508,8.5456073,1.9712723,0.042791054,-5.7276397,-0.00014175766,0.007439493,0.0,-0.08797005,-0.03701427,-0.048560943,-0.020067835,-0.011515036,0.008892436,0.039197564,-1.9673716,-0.05175301,0.017517244,1.6080484,-0.0017392042,488.11032,5.848464,0.46009707,0.4574214,0.15972406,0.12790574,inf,inf,inf,inf,1,1,1,1,2,0,2,1,3,1,1,1,0,0
169232000,169232000,904000,47.3977508,8.5456073,1.74145,0.05632926,-5.733557,-0.00014175766,0.007439493,0.0,-1.0001017,-0.036461882,-0.037997358,-0.007892637,-0.011515036,0.008892436,0.039197564,-1.7162826,-0.06316289,0.053416934,1.6084898,-0.0017392042,488.11032,5.8543816,0.4696828,0.45703596,0.16478188,0.12883033,inf,inf,inf,inf,1,1,1,1,2,0,2,1,3,1,1,1,0,0
169736000,169736000,904000,47.3977508,8.5456073,1.0718751,0.06462394,-5.7340717,-0.00014175766,0.007439493,0.0,-1.6950374,-0.042833023,-0.021088531,0.008163551,-0.011515036,0.008892436,0.039197564,-1.0059124,-0.060369737,-0.019489786,1.6087637,-0.0017392042,488.11032,5.854896,0.48050308,0.46144634,0.17019457,0.13053435,inf,inf,inf,inf,1,1,1,1,2,0,2,1,3,1,1,1,0,0
170240000,170240000,904000,47.3977508,8.5456073,0.14200994,0.0707295,-5.7234907,-0.00014175766,0.007439493,0.0,-1.9687529,-0.04707309,-0.020469725,0.0129333595,-0.011515036,0.008892436,0.039197564,-0.053866472,-0.02890224,-0.033413056,1.6089557,-0.0017392042,488.11032,5.844315,0.4917966,0.4618937,0.17453523,0.1317138,inf,inf,inf,inf,1,1,1,1,2,0,2,1,3,1,1,1,0,0
170736000,170736000,904000,47.3977508,8.5456073,-0.8139682,0.08217805,-5.7161565,-0.00014175766,0.007439493,0.0,-1.7640758,-0.050753854,-0.03856766,-0.0020983303,-0.011515036,0.008892436,0.039197564,0.8725668,-0.032867666,-0.05288608,1.6089262,-0.0017392042,488.11032,5.836981,0.45984095,0.45635712,0.1604573,0.1278508,inf,inf,inf,inf,1,1,1,1,2,0,2,1,3,1,1,1,0,0
171240000,171240000,904000,47.3977508,8.5456073,-1.5940996,0.08315678,-5.715006,-0.00014175766,0.007439493,0.0,-1.1115706,-0.059900127,-0.043463152,-0.0052662734,-0.011515036,0.008892436,0.039197564,1.6784024,-0.010886185,-0.06346404,1.6085448,-0.0017392042,488.11032,5.83583,0.47023118,0.45694578,0.16401376,0.12908345,inf,inf,inf,inf,1,1,1,1,2,0,2,1,3,1,1,1,0,0
171736000,171736000,904000,47.3977508,8.5456073,-1.9694949,0.069396995,-5.7259912,-0.00014175766,0.007439493,0.0,-0.19817571,-0.05915332,-0.058382995,-0.02374356,-0.011515036,0.008892436,0.039197564,1.9969758,0.011513577,-0.022677703,1.6081908,-0.0017392042,488.11032,5.8468156,0.48029986,0.4606892,0.16887021,0.13056593,inf,inf,inf,inf,1,1,1,1,2,0,2,1,3,1,1,1,0,0
172240000,172240000,904000,47.3977508,8.5456073,-1.8644037,0.049629223,-5.7471714,-0.00014175766,0.007439493,0.0,0.77199405,-0.05292987,-0.039878484,-0.015435349,-0.011515036,0.008892436,0.039197564,1.8263297,0.008486196,0.06636697,1.608169,-0.0017392042,488.11032,5.8679957,0.49178368,0.46516478,0.17558795,0.13217904,inf,inf,inf,inf,1,1,1,1,2,0,2,1,3,1,1,1,0,0
172736000,172736000,904000,47.3977508,8.5456073,-1.3217059,0.037499186,-5.7527847,-0.00014175766,0.007439493,0.0,1.5439744,-0.041843653,-0.014857707,0.0052085547,-0.011515036,0.008892436,0.039197564,1.2600566,-0.026241554,0.028128734,1.607759,-0.0017392042,488.11032,5.873609,0.4598048,0.4553969,0.16391823,0.12758914,inf,inf,inf,inf,1,1,1,1,2,0,2,1,3,1,1,1,0,0
173232000,173232000,904000,47.3977508,8.5456073,-0.457847,0.02932131,-5.755015,-0.00014175766,0.007439493,0.0,1.9554242,-0.03403984,0.0050984435,0.01791525,-0.011515036,0.008892436,0.039197564,0.36589652,0.011770534,-0.020919366,1.6077403,-0.0017392042,488.11032,5.875839,0.46952733,0.45885286,0.16831766,0.12907179,inf,inf,inf,inf,1,1,1,1,2,0,2,1,3,1,1,1,0,0
