timestamp,timestamp_sample,ref_timestamp,ref_lat,ref_lon,x,y,z,delta_xy[0],delta_xy[1],delta_z,vx,vy,vz,z_deriv,delta_vxy[0],delta_vxy[1],delta_vz,ax,ay,az,heading,delta_heading,ref_alt,dist_bottom,eph,epv,evh,evv,vxy_max,vz_max,hagl_min,hagl_max,xy_valid,z_valid,v_xy_valid,v_z_valid,xy_reset_counter,z_reset_counter,vxy_reset_counter,vz_reset_counter,heading_reset_counter,heading_good_for_control,xy_global,z_global,dist_bottom_valid,dist_bottom_sensor_bitfield
8684000,8676000,908000,47.3977508,8.5456073,-0.00046476568,0.007852002,0.02805129,3.7317615e-05,0.007414011,0.0,-0.00072478695,-0.0030159985,-9.229681e-05,-0.0014591541,0.0012499903,3.4510333e-05,-0.010784673,-0.0038733557,0.0025812767,0.0062137838,1.6228145,0.0028830776,488.10086,0.1,0.47141618,0.30465397,0.020062644,0.014056143,inf,inf,inf,inf,1,1,1,1,2,0,2,1,2,0,1,1,1,0
9180000,9172000,908000,47.3977508,8.5456073,-0.0011259336,0.008316483,0.026993379,3.7317615e-05,0.007414011,0.0,-0.0017325507,0.00057322584,0.0005840798,-0.00059724174,0.0012499903,3.4510333e-05,-0.010784673,-0.008318383,-0.029150235,0.025529413,1.6230688,0.0028830776,488.10086,0.10024986,0.44722492,0.29582146,0.0099928975,0.0070625497,inf,inf,inf,inf,1,1,1,1,2,0,2,1,2,0,1,1,1,0
9684000,9684000,908000,47.3977508,8.5456073,-0.002442139,0.009022922,0.02541929,3.7317615e-05,0.007414011,0.0,-0.003477199,0.00046560072,-9.5723e-05,-0.002179005,0.0012499903,3.4510333e-05,-0.010784673,0.0009085779,0.031140922,-0.024822539,1.6223717,0.0028830776,488.10086,0.1,0.42641678,0.28675115,0.017893922,0.012653379,inf,inf,inf,inf,1,1,1,1,2,0,2,1,2,0,1,1,1,0
10184000,10180000,908000,47.3977508,8.5456073,-0.0016827941,0.009341002,0.02508984,3.7317615e-05,0.007414011,0.0,-0.0025162182,0.0029687642,-0.00047744723,-0.0019064475,0.0012499903,3.4510333e-05,-0.010784673,0.058820263,0.019693134,0.0031124798,1.6227825,0.0028830776,488.10086,0.10041415,0.39224747,0.27935112,0.0058282325,0.004122978,inf,inf,inf,inf,1,1,1,1,2,0,2,1,2,0,1,1,1,0
10676000,10668000,908000,47.3977508,8.5456073,-0.00091957854,0.009316891,0.023218254,3.7317615e-05,0.007414011,0.0,0.0013683494,0.0002582396,0.00035306098,-0.0016089691,0.0012499903,3.4510333e-05,-0.010784673,0.03598898,0.01121273,0.004840083,1.6230109,0.0028830776,488.10086,0.1,0.37798235,0.2716748,0.013642099,0.009676491,inf,inf,inf,inf,1,1,1,1,2,0,2,1,2,0,1,1,1,0
11180000,11172000,908000,47.3977508,8.5456073,-0.00025479955,0.009113955,0.024192477,3.7317615e-05,0.007414011,0.0,0.0011409835,0.001533774,-0.0006780583,-0.0010669302,0.0012499903,3.4510333e-05,-0.010784673,0.0061183814,0.013174358,-0.023987142,1.6219336,0.0028830776,488.10086,0.10168817,0.36517292,0.26536083,0.019771438,0.014068691,inf,inf,inf,inf,1,1,1,1,2,0,2,1,2,0,1,1,1,0
11684000,11684000,908000,47.3977508,8.5456073,-0.00089280336,0.00884404,0.024271369,3.7317615e-05,0.007414011,0.0,-0.0020932374,-8.961458e-05,-0.00047791816,-0.00023950482,0.0012499903,3.4510333e-05,-0.010784673,0.008719711,-0.03430304,0.013054348,1.6213508,0.0028830776,488.10086,0.10047801,0.35357755,0.258753,0.011601413,0.008236357,inf,inf,inf,inf,1,1,1,1,2,0,2,1,2,0,1,1,1,0
12180000,12180000,908000,47.3977508,8.5456073,-0.0008900048,0.008404581,0.02401699,3.7317615e-05,0.007414011,0.0,-0.0005713931,0.0024773416,0.0014326884,0.00062770466,0.0012499903,3.4510333e-05,-0.010784673,-0.013250303,0.009345414,-0.0028247011,1.6209471,0.0028830776,488.10086,0.10011995,0.33340442,0.2533093,0.029451018,0.021094674,inf,inf,inf,inf,1,1,1,1,2,0,2,1,2,0,1,1,1,0
12676000,12676000,908000,47.3977508,8.5456073,0.0002974907,0.008860662,0.023751216,3.7317615e-05,0.007414011,0.0,0.0035862569,0.00059483136,0.0045693107,0.0028318923,0.0012499903,3.4510333e-05,-0.010784673,-0.0039938893,0.020220468,0.045504417,1.6196848,0.0028830776,488.10086,0.100385725,0.32531577,0.24870375,0.05254572,0.037282445,inf,inf,inf,inf,1,1,1,1,2,0,2,1,2,0,1,1,1,0
13180000,13180000,908000,47.3977508,8.5456073,0.0027549495,0.009773659,0.025156507,3.7317615e-05,0.007414011,0.0,0.0074005015,0.0017866895,0.008783242,0.0065335734,0.0012499903,3.4510333e-05,-0.010784673,-0.0076074353,-0.007971248,0.0031497327,1.6182991,0.0028830776,488.10086,0.1,0.31244874,0.24539164,0.074353,0.05187211,inf,inf,inf,inf,1,1,1,1,2,0,2,1,2,0,1,1,1,0
13684000,13684000,908000,47.3977508,8.5456073,0.005386967,0.010215374,0.022651946,3.7317615e-05,0.007414011,0.0,0.0014456101,-0.0050724326,-0.0417335,-0.044836428,0.0012499903,3.4510333e-05,-0.010784673,-0.092960335,-0.17831749,-0.22398773,1.6202087,0.0028830776,488.10086,0.103229724,0.313054,0.24602535,0.09694098,0.06581176,inf,inf,inf,inf,1,1,1,1,2,0,2,1,2,0,1,1,1,0
14180000,14180000,908000,47.3977508,8.5456073,-0.009704409,-0.025323331,-0.055157848,3.7317615e-05,0.007414011,0.0,-0.050142255,-0.12180531,-0.28848925,-0.2910868,0.0012499903,3.4510333e-05,-0.010784673,-0.032543167,-0.029800808,-0.5293246,1.6233737,0.0028830776,488.10086,0.18103951,0.32099617,0.25059038,0.12012015,0.07879895,inf,inf,inf,inf,1,1,1,1,2,0,2,1,2,0,1,1,1,0
14676000,14676000,908000,47.3977508,8.5456073,-0.041662827,-0.07965151,-0.25999624,3.7317615e-05,0.007414011,0.0,-0.053099867,-0.0815624,-0.5229657,-0.52538097,0.0012499903,3.4510333e-05,-0.010784673,0.074260734,0.13082021,-0.47837383,1.6259117,0.0028830776,488.10086,0.3858779,0.33798605,0.2613464,0.1424466,0.09098164,inf,inf,inf,inf,1,1,1,1,2,0,2,1,2,0,1,1,1,0
15180000,15180000,908000,47.3977508,8.5456073,-0.06916325,-0.10138893,-0.573907,3.7317615e-05,0.007414011,0.0,-0.02676768,-0.00342781,-0.7078021,-0.7104555,0.0012499903,3.4510333e-05,-0.010784673,0.056670073,0.16065487,-0.33014917,1.6284086,0.0028830776,488.10086,0.6997887,0.34592187,0.27540463,0.15149224,0.099849835,inf,inf,inf,inf,1,1,1,1,2,0,2,1,2,0,1,1,1,0
15676000,15676000,908000,47.3977508,8.5456073,-0.082623385,-0.09658945,-0.965925,3.7317615e-05,0.007414011,0.0,0.0058468133,0.04455241,-0.85439956,-0.8593111,0.0012499903,3.4510333e-05,-0.010784673,0.062306322,0.11443398,-0.24145281,1.6300963,0.0028830776,488.10086,1.0918067,0.37177065,0.29562923,0.16577283,0.109169394,inf,inf,inf,inf,1,1,1,1,2,0,2,1,2,0,1,1,1,0
16180000,16180000,908000,47.3977508,8.5456073,-0.0841001,-0.06947615,-1.4346744,3.7317615e-05,0.007414011,0.0,0.030256718,0.07384108,-0.9651547,-0.9751597,0.0012499903,3.4510333e-05,-0.010784673,0.02665493,-0.0023936443,-0.21887104,1.6319711,0.0028830776,488.10086,1.560556,0.40146166,0.3198179,0.17763671,0.11733853,inf,inf,inf,inf,1,1,1,1,2,0,2,1,2,0,1,1,1,0
16676000,16676000,908000,47.3977508,8.5456073,-0.08218303,-0.032789662,-1.9455094,3.7317615e-05,0.007414011,0.0,0.045608874,0.07159059,-1.047653,-1.0617639,0.0012499903,3.4510333e-05,-0.010784673,0.05971324,-0.02878574,-0.10886881,1.6289127,-0.009077282,488.10086,2.071391,0.42842686,0.34346935,0.197206,0.12354572,inf,inf,inf,inf,1,1,1,1,2,0,2,1,3,0,1,1,1,0
17180000,17180000,908000,47.3977508,8.5456073,-0.08264914,-0.016752923,-2.502285,3.7317615e-05,0.007414011,0.0,0.055952642,0.045166347,-1.1135546,-1.1304318,0.0012499903,3.4510333e-05,-0.010784673,0.08592027,-0.037310656,-0.09512714,1.6313188,-0.009077282,488.10086,2.6281667,0.41785726,0.36106277,0.22577988,0.12401318,inf,inf,inf,inf,1,1,1,1,2,0,2,1,3,0,1,1,0,0
17684000,17684000,908000,47.3977508,8.5456073,-0.07034218,-0.006753031,-3.0905929,3.7317615e-05,0.007414011,0.0,0.07165344,0.041481845,-1.1643548,-1.184824,0.0012499903,3.4510333e-05,-0.010784673,0.053278327,0.02107337,-0.13276933,1.6337571,-0.009077282,488.10086,3.2164745,0.43945765,0.3823255,0.26610455,0.12734392,inf,inf,inf,inf,1,1,1,1,2,0,2,1,3,1,1,1,0,0
18180000,18180000,908000,47.3977508,8.5456073,-0.042176038,0.021003567,-3.688357,3.7317615e-05,0.007414011,0.0,0.07936452,0.04777444,-1.203338,-1.2232722,0.0012499903,3.4510333e-05,-0.010784673,-0.013288415,-0.074052624,-0.10996777,1.6341579,-0.009077282,488.10086,3.8142388,0.4617413,0.40307477,0.28617644,0.12993434,inf,inf,inf,inf,1,1,1,1,2,0,2,1,3,1,1,1,0,0
18676000,18676000,908000,47.3977508,8.5456073,-0.008022359,0.043247372,-4.3067217,3.7317615e-05,0.007414011,0.0,0.062678516,0.021223685,-1.2328777,-1.2550895,0.0012499903,3.4510333e-05,-0.010784673,-0.025788859,-0.04293928,0.0018319114,1.6374618,-0.009077282,488.10086,4.4326034,0.48481312,0.41874075,0.29264355,0.1311996,inf,inf,inf,inf,1,1,1,1,2,0,2,1,3,1,1,1,0,0
19180000,19180000,908000,47.3977508,8.5456073,0.023518914,0.056255806,-4.9570374,3.7317615e-05,0.007414011,0.0,0.03474727,0.000864753,-1.2494701,-1.2806277,0.0012499903,3.4510333e-05,-0.010784673,-0.0755296,-0.0065518394,-0.017825512,1.6399804,-0.009077282,488.10086,5.082919,0.4531824,0.42413113,0.23965433,0.12742314,inf,inf,inf,inf,1,1,1,1,2,0,2,1,3,1,1,1,0,0
19676000,19676000,908000,47.3977508,8.5456073,0.040026996,0.062098034,-5.6004043,3.7317615e-05,0.007414011,0.0,0.004515679,-0.010318017,-1.2666817,-1.3007451,0.0012499903,3.4510333e-05,-0.010784673,-0.06913929,0.015805373,-0.010705552,1.6423012,-0.009077282,488.10086,5.726286,0.46985888,0.43420166,0.23873743,0.1278493,inf,inf,inf,inf,1,1,1,1,2,0,2,1,3,1,1,1,0,0
20180000,20180000,908000,47.3977508,8.5456073,0.041675624,0.06496783,-6.196166,3.7317615e-05,0.007414011,0.0,-0.02563763,-0.028041877,-0.66734177,-0.705505,0.0012499903,3.4510333e-05,-0.010784673,-0.08353382,-0.11602986,3.3624003,1.6439669,-0.009077282,488.10086,6.3220477,0.48755723,0.44633892,0.23550458,0.12894814,inf,inf,inf,inf,1,1,1,1,2,0,2,1,3,1,1,1,0,0
20676000,20676000,908000,47.3977508,8.5456073,0.03628834,0.061550796,-6.275201,3.7317615e-05,0.007414011,0.0,-0.033942148,-0.03458607,0.07928471,0.020963976,0.0012499903,3.4510333e-05,-0.010784673,-0.005212845,0.05002382,-1.1355709,1.6443335,-0.009077282,488.10086,6.4010825,0.5035044,0.45589557,0.2299887,0.12983386,inf,inf,inf,inf,1,1,1,1,2,0,2,1,3,1,1,1,0,0
21180000,21180000,908000,47.3977508,8.5456073,0.029081868,0.067238525,-6.3116174,3.7317615e-05,0.007414011,0.0,-0.027344419,-0.031426597,-0.040481873,-0.08609102,0.0012499903,3.4510333e-05,-0.010784673,0.0412174,-0.021728585,0.06611831,1.6434315,-0.009077282,488.10086,6.437499,0.46699682,0.44985136,0.19808781,0.12528902,inf,inf,inf,inf,1,1,1,1,2,0,2,1,3,1,1,1,0,0
21676000,21676000,908000,47.3977508,8.5456073,-0.0009304887,0.068053186,-6.337899,3.7317615e-05,0.007414011,0.0,-0.24680091,-0.05119534,-0.005717514,-0.043545127,0.0012499903,3.4510333e-05,-0.010784673,-0.96235436,-0.06060814,0.08439365,1.6433402,-0.009077282,488.10086,6.463781,0.47998235,0.45684648,0.19730854,0.12647367,inf,inf,inf,inf,1,1,1,1,2,0,2,1,3,1,1,1,0,0
22184000,22180000,908000,47.3977508,8.5456073,-0.24255097,0.058794484,-6.351034,3.7317615e-05,0.007414011,0.0,-0.858393,-0.09839572,0.004116909,-0.031845134,0.0012499903,3.4510333e-05,-0.010784673,-1.4791204,-0.12723005,-0.044300217,1.6427647,-0.009077282,488.10086,6.476916,0.49394363,0.4596978,0.19810976,0.12729874,inf,inf,inf,inf,1,1,1,1,2,0,2,1,3,1,1,1,0,0
22680000,22676000,908000,47.3977508,8.5456073,-0.83845377,0.029155212,-6.3920484,3.7317615e-05,0.007414011,0.0,-1.6320027,-0.16238086,-0.09863838,-0.1374254,0.0012499903,3.4510333e-05,-0.010784673,-1.5889707,-0.17744908,-0.26784277,1.643385,-0.009077282,488.10086,6.51793,0.50684035,0.4649343,0.20073742,0.12870252,inf,inf,inf,inf,1,1,1,1,2,0,2,1,3,1,1,1,0,0
23184000,23180000,908000,47.3977508,8.5456073,-1.8267027,-0.019558903,-6.4951987,3.7317615e-05,0.007414011,0.0,-2.3366666,-0.22350658,-0.25695932,-0.28983563,0.0012499903,3.4510333e-05,-0.010784673,-1.1602367,-0.17634822,-0.23550352,1.6429698,-0.009077282,488.10086,6.6210804,0.47070667,0.45622736,0.18136142,0.12487864,inf,inf,inf,inf,1,1,1,1,2,0,2,1,3,1,1,1,0,0
23680000,23676000,908000,47.3977508,8.5456073,-3.0855997,-0.08791567,-6.654105,3.7317615e-05,0.007414011,0.0,-2.7146273,-0.2665983,-0.17243817,-0.21796708,0.0012499903,3.4510333e-05,-0.010784673,-0.38270125,-0.14988987,0.61147004,1.6422722,-0.009077282,488.10086,6.779987,0.4817878,0.46032706,0.1828857,0.12665337,inf,inf,inf,inf,1,1,1,1,2,0,2,1,3,1,1,1,0,0
24184000,24180000,908000,47.3977508,8.5456073,-4.4653683,-0.18412583,-6.718654,3.7317615e-05,0.007414011,0.0,-2.6845946,-0.29164702,0.030496508,-0.023774883,0.0012499903,3.4510333e-05,-0.010784673,0.5110593,-0.02871893,0.2682302,1.6429094,-0.009077282,488.10086,6.844536,0.49405405,0.46490857,0.18231958,0.12880644,inf,inf,inf,inf,1,1,1,1,2,0,2,1,3,1,1,1,0,0
24680000,24676000,908000,47.3977508,8.5456073,-5.715969,-0.29302028,-6.708308,3.7317615e-05,0.007414011,0.0,-2.2441354,-0.2829223,0.12859015,0.07262142,0.0012499903,3.4510333e-05,-0.010784673,1.2857453,0.042668853,0.20865443,1.6425995,-0.009077282,488.10086,6.83419,0.50519913,0.4645594,0.18308574,0.13022737,inf,inf,inf,inf,1,1,1,1,2,0,2,1,3,1,1,1,0,0
25184000,25180000,908000,47.3977508,8.5456073,-6.6945534,-0.39690405,-6.6689386,3.7317615e-05,0.007414011,0.0,-1.4597017,-0.23398896,0.17119955,0.10650298,0.0012499903,3.4510333e-05,-0.010784673,1.8455642,0.10915222,0.08456874,1.6430405,-0.009077282,488.10086,6.7948203,0.47053978,0.45947072,0.1714574,0.12717856,inf,inf,inf,inf,1,1,1,1,2,0,2,1,3,1,1,1,0,0
25680000,25676000,908000,47.3977508,8.5456073,-7.2184677,-0.48820877,-6.627826,3.7317615e-05,0.007414011,0.0,-0.5227556,-0.16405514,0.18260843,0.10530623,0.0012499903,3.4510333e-05,-0.010784673,1.9091057,0.16531426,0.0129761165,1.6426343,-0.009077282,488.10086,6.753708,0.48044476,0.4593005,0.18511704,0.12848793,inf,inf,inf,inf,1,1,1,1,2,0,2,1,3,1,1,1,0,0
26184000,26180000,908000,47.3977508,8.5456073,-7.26393,-0.55910134,-6.5905275,3.7317615e-05,0.007414011,0.0,0.37792245,-0.07782994,0.17076235,0.085101984,0.0012499903,3.4510333e-05,-0.010784673,1.6361583,0.1581987,0.025848856,1.6420779,-0.009077282,488.10086,6.716409,0.4919392,0.46377718,0.2004273,0.1303815,inf,inf,inf,inf,1,1,1,1,2,0,2,1,3,1,1,1,0,0
26680000,26676000,908000,47.3977508,8.5456073,-6.9069324,-0.5996582,-6.5476685,3.7317615e-05,0.007414011,0.0,1.0050284,0.004080847,0.15556467,0.07549604,0.0012499903,3.4510333e-05,-0.010784673,0.9042539,0.20446855,-0.04107039,1.6416434,-0.009077282,488.10086,6.67355,0.5035655,0.46341148,0.20893493,0.13140629,inf,inf,inf,inf,1,1,1,1,2,0,2,1,3,1,1,1,0,0
27184000,27180000,908000,47.3977508,8.5456073,-6.31821,-0.61001307,-6.5247,3.7317615e-05,0.007414011,0.0,1.2289348,0.07841404,0.1452551,0.058495183,0.0012499903,3.4510333e-05,-0.010784673,0.01169776,0.14919163,-0.008932314,1.6421474,-0.009077282,488.10086,6.650582,0.4692028,0.45845488,0.18475486,0.12785327,inf,inf,inf,inf,1,1,1,1,2,0,2,1,3,1,1,1,0,0
27680000,27676000,908000,47.3977508,8.5456073,-5.7281365,-0.5811995,-6.5010586,3.7317615e-05,0.007414011,0.0,0.9979195,0.115784384,0.14356358,0.05346975,0.0012499903,3.4510333e-05,-0.010784673,-0.8837828,-0.0031836678,0.085967585,1.6447093,-0.009077282,488.10086,6.6269403,0.47961253,0.46205452,0.18247232,0.12946577,inf,inf,inf,inf,1,1,1,1,2,0,2,1,3,1,1,1,0,0
28180000,28172000,908000,47.3977508,8.5456073,-5.33996,-0.5436628,-6.4704747,3.7317615e-05,0.007414011,0.0,0.3906512,0.08398121,0.1496758,0.06216186,0.0012499903,3.4510333e-05,-0.010784673,-1.5608232,-0.09714903,-0.013079493,1.6465851,-0.009077282,488.10086,6.5963564,0.4904104,0.4616368,0.18197662,0.13053599,inf,inf,inf,inf,1,1,1,1,2,0,2,1,3,1,1,1,0,0
28676000,28668000,908000,47.3977508,8.5456073,-5.3184104,-0.51135534,-6.4407763,3.7317615e-05,0.007414011,0.0,-0.45024568,0.014408149,0.13289148,0.050101753,0.0012499903,3.4510333e-05,-0.010784673,-1.8370436,-0.26132786,-0.02070423,1.648778,-0.009077282,488.10086,6.566658,0.5013362,0.46529642,0.18831962,0.13215998,inf,inf,inf,inf,1,1,1,1,2,0,2,1,3,1,1,1,0,0
29180000,29172000,908000,47.3977508,8.5456073,-5.7366104,-0.50312877,-6.427059,3.7317615e-05,0.007414011,0.0,-1.3187202,-0.081194855,0.12594582,0.03732932,0.0012499903,3.4510333e-05,-0.010784673,-1.6180781,-0.1909609,-0.025996936,1.6477736,-0.009077282,488.10086,6.552941,0.46814212,0.4563109,0.17956612,0.1280383,inf,inf,inf,inf,1,1,1,1,2,0,2,1,3,1,1,1,0,0
29676000,29668000,908000,47.3977508,8.5456073,-6.551365,-0.5150035,-6.4095073,3.7317615e-05,0.007414011,0.0,-1.9828696,-0.15494516,0.107973285,0.022299202,0.0012499903,3.4510333e-05,-0.010784673,-0.9983875,-0.18445843,-0.0645155,1.6456934,-0.009077282,488.10086,6.535389,0.477958,0.46002108,0.18950604,0.12970448,inf,inf,inf,inf,1,1,1,1,2,0,2,1,3,1,1,1,0,0
30180000,30172000,908000,47.3977508,8.5456073,-7.644345,-0.55749375,-6.402384,3.7317615e-05,0.007414011,0.0,-2.2872949,-0.21141066,0.09478672,0.009851293,0.0012499903,3.4510333e-05,-0.010784673,-0.16829272,-0.15614979,-0.015625728,1.644737,-0.009077282,488.10086,6.5282655,0.48976856,0.46073964,0.19458936,0.1310797,inf,inf,inf,inf,1,1,1,1,2,0,2,1,3,1,1,1,0,0
30684000,30676000,908000,47.3977508,8.5456073,-8.80037,-0.62806064,-6.390527,3.7317615e-05,0.007414011,0.0,-2.1459336,-0.23641558,0.08586614,0.009819052,0.0012499903,3.4510333e-05,-0.010784673,0.75676584,-0.062780954,-0.027860513,1.644319,-0.009077282,488.10086,6.5164084,0.5025097,0.46558946,0.19463305,0.13299866,inf,inf,inf,inf,1,1,1,1,2,0,2,1,3,1,1,1,0,0
31180000,31172000,908000,47.3977508,8.5456073,-9.787481,-0.70889956,-6.38336,3.7317615e-05,0.007414011,0.0,-1.6017281,-0.22480758,0.09773892,0.02282856,0.0012499903,3.4510333e-05,-0.010784673,1.4396518,0.04595491,0.090319656,1.6438609,-0.009077282,488.10086,6.5092416,0.46799374,0.45608482,0.1740417,0.12862143,inf,inf,inf,inf,1,1,1,1,2,0,2,1,3,1,1,1,0,0
31676000,31668000,908000,47.3977508,8.5456073,-10.427539,-0.78517705,-6.3702736,3.7317615e-05,0.007414011,0.0,-0.7780689,-0.18248147,0.0915498,0.018072743,0.0012499903,3.4510333e-05,-0.010784673,1.8548689,0.082404755,0.022019258,1.6440576,-0.009077282,488.10086,6.4961553,0.47847867,0.4600026,0.18075131,0.13019124,inf,inf,inf,inf,1,1,1,1,2,0,2,1,3,1,1,1,0,0
32180000,32172000,908000,47.3977508,8.5456073,-10.63115,-0.84919465,-6.361158,3.7317615e-05,0.007414011,0.0,0.14139087,-0.11757331,0.076058544,0.0052672555,0.0012499903,3.4510333e-05,-0.010784673,1.748201,0.16502583,-0.0031972302,1.6439875,-0.009077282,488.10086,6.4870396,0.4904512,0.4606091,0.19417657,0.13128635,inf,inf,inf,inf,1,1,1,1,2,0,2,1,3,1,1,1,0,0
32684000,32676000,908000,47.3977508,8.5456073,-10.385365,-0.87311304,-6.354153,3.7317615e-05,0.007414011,0.0,0.91902554,-0.03568482,0.06609159,0.0017199274,0.0012499903,3.4510333e-05,-0.010784673,1.3091292,0.11405118,-0.0078659495,1.6445175,-0.009077282,488.10086,6.480035,0.5034643,0.4651738,0.20696284,0.13289662,inf,inf,inf,inf,1,1,1,1,2,0,2,1,3,1,1,1,0,0
33180000,33172000,908000,47.3977508,8.5456073,-9.832082,-0.85893166,-6.3456326,3.7317615e-05,0.007414011,0.0,1.3497947,0.029626101,0.04723497,-0.0073706172,0.0012499903,3.4510333e-05,-0.010784673,0.4294993,0.098533094,-0.053510997,1.6446917,-0.009077282,488.10086,6.471514,0.46842143,0.4593332,0.18647566,0.12888761,inf,inf,inf,inf,1,1,1,1,2,0,2,1,3,1,1,1,0,0
33676000,33668000,908000,47.3977508,8.5456073,-9.149737,-0.8242328,-6.3491497,3.7317615e-05,0.007414011,0.0,1.3526946,0.063110225,0.04380306,-0.00966137,0.0012499903,3.4510333e-05,-0.010784673,-0.46321815,0.029582558,0.023528932,1.6447636,-0.009077282,488.10086,6.4750314,0.47921947,0.45907226,0.18517482,0.12992229,inf,inf,inf,inf,1,1,1,1,2,0,2,1,3,1,1,1,0,0
34180000,34172000,908000,47.3977508,8.5456073,-8.554844,-0.77838266,-6.3410234,3.7317615e-05,0.007414011,0.0,0.91744787,0.060148947,0.05920702,0.012791039,0.0012499903,3.4510333e-05,-0.010784673,-1.2334634,-0.054578047,0.046968456,1.6464132,-0.009077282,488.10086,6.466905,0.4913177,0.46351978,0.18254304,0.13169345,inf,inf,inf,inf,1,1,1,1,2,0,2,1,3,1,1,1,0,0
34676000,34668000,908000,47.3977508,8.5456073,-8.255992,-0.7361641,-6.3245144,3.7317615e-05,0.007414011,0.0,0.16549745,0.010946697,0.053434867,0.015317135,0.0012499903,3.4510333e-05,-0.010784673,-1.7772572,-0.14252195,0.017180106,1.6473166,-0.009077282,488.10086,6.450396,0.50253654,0.46326768,0.1844317,0.13266537,inf,inf,inf,inf,1,1,1,1,2,0,2,1,3,1,1,1,0,0
35180000,35172000,908000,47.3977508,8.5456073,-8.37758,-0.71293914,-6.314005,3.7317615e-05,0.007414011,0.0,-0.74390763,-0.06616254,0.04533027,0.010970605,0.0012499903,3.4510333e-05,-0.010784673,-1.7795703,-0.20292446,-0.026033258,1.6469659,-0.009077282,488.10086,6.4398866,0.46868408,0.45824826,0.17417978,0.12882626,inf,inf,inf,inf,1,1,1,1,2,0,2,1,3,1,1,1,0,0
35676000,35668000,908000,47.3977508,8.5456073,-8.935866,-0.72410655,-6.307277,3.7317615e-05,0.007414011,0.0,-1.5580363,-0.14328223,0.037750505,0.0045068217,0.0012499903,3.4510333e-05,-0.010784673,-1.4502697,-0.17765148,-0.010492279,1.6447059,-0.009077282,488.10086,6.433159,0.47865742,0.46195486,0.18522996,0.1302775,inf,inf,inf,inf,1,1,1,1,2,0,2,1,3,1,1,1,0,0
36180000,36172000,908000,47.3977508,8.5456073,-9.869205,-0.7643521,-6.311744,3.7317615e-05,0.007414011,0.0,-2.1010451,-0.19872747,0.027749607,-0.009169602,0.0012499903,3.4510333e-05,-0.010784673,-0.68239003,-0.17817852,-0.007702037,1.6443332,-0.009077282,488.10086,6.437626,0.49027476,0.462348,0.19263434,0.1313451,inf,inf,inf,inf,1,1,1,1,2,0,2,1,3,1,1,1,0,0
36676000,36668000,908000,47.3977508,8.5456073,-10.97285,-0.83489823,-6.325726,3.7317615e-05,0.007414011,0.0,-2.2269855,-0.22921546,0.0316318,-0.012668772,0.0012499903,3.4510333e-05,-0.010784673,0.21081242,-0.091738366,-0.009907409,1.645081,-0.009077282,488.10086,6.4516077,0.501771,0.46602568,0.1929242,0.13281964,inf,inf,inf,inf,1,1,1,1,2,0,2,1,3,1,1,1,0,0
37180000,37172000,908000,47.3977508,8.5456073,-12.059752,-0.9293066,-6.3460646,3.7317615e-05,0.007414011,0.0,-1.9078027,-0.23456062,0.04773123,-0.009512976,0.0012499903,3.4510333e-05,-0.010784673,1.0944662,0.010318181,0.13515446,1.6447388,-0.009077282,488.10086,6.4719462,0.46818385,0.4568354,0.1703922,0.12849547,inf,inf,inf,inf,1,1,1,1,2,0,2,1,3,1,1,1,0,0
37684000,37676000,908000,47.3977508,8.5456073,-12.894899,-1.0188963,-6.3537526,3.7317615e-05,0.007414011,0.0,-1.2149115,-0.19970703,0.0754782,0.009723558,0.0012499903,3.4510333e-05,-0.010784673,1.716108,0.09904248,0.08879322,1.6443304,-0.009077282,488.10086,6.4796343,0.47931153,0.46102527,0.17188124,0.13016737,inf,inf,inf,inf,1,1,1,1,2,0,2,1,3,1,1,1,0,0
38180000,38172000,908000,47.3977508,8.5456073,-13.313503,-1.0790125,-6.361057,3.7317615e-05,0.007414011,0.0,-0.33226228,-0.12941612,0.086065374,0.0087157795,0.0012499903,3.4510333e-05,-0.010784673,1.844145,0.14985414,0.029291024,1.6444896,-0.009077282,488.10086,6.4869385,0.4898854,0.4645711,0.18037754,0.13160981,inf,inf,inf,inf,1,1,1,1,2,0,2,1,3,1,1,1,0,0
38676000,38676000,908000,47.3977508,8.5456073,-13.271129,-1.1057276,-6.35787,3.7317615e-05,0.007414011,0.0,0.551761,-0.04787556,0.086072706,0.009983925,0.0012499903,3.4510333e-05,-0.010784673,1.6531392,0.14209007,0.0129183745,1.6446127,-0.009077282,488.10086,6.483752,0.50116307,0.4643001,0.19407693,0.13251157,inf,inf,inf,inf,1,1,1,1,2,0,2,1,3,1,1,1,0,0
39180000,39180000,908000,47.3977508,8.5456073,-12.8504505,-1.0987104,-6.3643723,3.7317615e-05,0.007414011,0.0,1.1880767,0.022298029,0.07655631,-0.003828686,0.0012499903,3.4510333e-05,-0.010784673,0.9532571,0.100670286,0.0064810733,1.6440082,-0.009077282,488.10086,6.490254,0.4681952,0.45958814,0.18126537,0.1287752,inf,inf,inf,inf,1,1,1,1,2,0,2,1,3,1,1,1,0,0
39676000,39676000,908000,47.3977508,8.5456073,-12.18826,-1.0745101,-6.3692884,3.7317615e-05,0.007414011,0.0,1.4335316,0.06512515,0.07025887,-0.010331732,0.0012499903,3.4510333e-05,-0.010784673,0.042499274,0.04578492,0.0779014,1.643052,-0.009077282,488.10086,6.49517,0.47871885,0.45934248,0.18345484,0.12981834,inf,inf,inf,inf,1,1,1,1,2,0,2,1,3,1,1,1,0,0
40180000,40180000,908000,47.3977508,8.5456073,-11.482577,-1.0412177,-6.370424,3.7317615e-05,0.007414011,0.0,1.237536,0.077431,0.07656545,-0.00075520086,0.0012499903,3.4510333e-05,-0.010784673,-0.8668663,0.0006727932,0.043918375,1.6431913,-0.009077282,488.10086,6.4963055,0.49061912,0.46371213,0.18128422,0.13160722,inf,inf,inf,inf,1,1,1,1,2,0,2,1,3,1,1,1,0,0
40676000,40676000,908000,47.3977508,8.5456073,-10.97664,-1.0033748,-6.367705,3.7317615e-05,0.007414011,0.0,0.64281565,0.05566445,0.09430961,0.017940298,0.0012499903,3.4510333e-05,-0.010784673,-1.5553858,-0.06264905,0.093981616,1.6442857,-0.009077282,488.10086,6.4935865,0.501686,0.46735707,0.17913926,0.13316599,inf,inf,inf,inf,1,1,1,1,2,0,2,1,3,1,1,1,0,0
41180000,41180000,908000,47.3977508,8.5456073,-10.812287,-0.98045105,-6.3678203,3.7317615e-05,0.007414011,0.0,-0.20756766,-0.002870319,0.093834355,0.011340087,0.0012499903,3.4510333e-05,-0.010784673,-1.8484385,-0.12847105,0.004519708,1.6449504,-0.009077282,488.10086,6.493702,0.46836698,0.45817018,0.16523468,0.12879682,inf,inf,inf,inf,1,1,1,1,2,0,2,1,3,1,1,1,0,0
41684000,41684000,908000,47.3977508,8.5456073,-11.096543,-0.97872084,-6.3630815,3.7317615e-05,0.007414011,0.0,-1.1032681,-0.07579734,0.09346908,0.010196949,0.0012499903,3.4510333e-05,-0.010784673,-1.7297558,-0.17377733,0.022447666,1.6451336,-0.009077282,488.10086,6.488963,0.4789089,0.4624232,0.17472157,0.13040264,inf,inf,inf,inf,1,1,1,1,2,0,2,1,3,1,1,1,0,0
42180000,42180000,908000,47.3977508,8.5456073,-11.790137,-1.0136331,-6.365031,3.7317615e-05,0.007414011,0.0,-1.8081559,-0.14152686,0.08904231,0.0017671874,0.0012499903,3.4510333e-05,-0.010784673,-1.1366861,-0.15981697,0.009590759,1.645445,-0.009077282,488.10086,6.4909124,0.489111,0.46190175,0.18402627,0.13123494,inf,inf,inf,inf,1,1,1,1,2,0,2,1,3,1,1,1,0,0
42676000,42676000,908000,47.3977508,8.5456073,-12.777855,-1.0814499,-6.367356,3.7317615e-05,0.007414011,0.0,-2.1683466,-0.18732677,0.080308534,-0.005778984,0.0012499903,3.4510333e-05,-0.010784673,-0.2962985,-0.052913975,-0.01563411,1.6450421,-0.009077282,488.10086,6.4932375,0.50009125,0.4654187,0.18862034,0.13266347,inf,inf,inf,inf,1,1,1,1,2,0,2,1,3,1,1,1,0,0
43180000,43180000,908000,47.3977508,8.5456073,-13.865506,-1.1567211,-6.381055,3.7317615e-05,0.007414011,0.0,-2.086056,-0.1919802,0.07845882,-0.014581491,0.0012499903,3.4510333e-05,-0.010784673,0.64430946,0.0013445532,0.036334615,1.6447355,-0.009077282,488.10086,6.5069366,0.46728608,0.46009928,0.1691691,0.12888157,inf,inf,inf,inf,1,1,1,1,2,0,2,1,3,1,1,1,0,0
43684000,43684000,908000,47.3977508,8.5456073,-14.828071,-1.2341992,-6.3951015,3.7317615e-05,0.007414011,0.0,-1.5811754,-0.16672976,0.107351504,0.0052591725,0.0012499903,3.4510333e-05,-0.010784673,1.3752642,0.08692106,0.15811156,1.6450905,-0.009077282,488.10086,6.520983,0.47819558,0.46024752,0.16915329,0.13005823,inf,inf,inf,inf,1,1,1,1,2,0,2,1,3,1,1,1,0,0
44180000,44180000,908000,47.3977508,8.5456073,-15.454097,-1.2891877,-6.390831,3.7317615e-05,0.007414011,0.0,-0.7857603,-0.10898839,0.12300473,0.019005105,0.0012499903,3.4510333e-05,-0.010784673,1.8241647,0.10168556,0.037833113,1.6448712,-0.009077282,488.10086,6.5167127,0.48862344,0.46387017,0.17351744,0.13158046,inf,inf,inf,inf,1,1,1,1,2,0,2,1,3,1,1,1,0,0
44684000,44684000,908000,47.3977508,8.5456073,-15.640305,-1.319549,-6.3870006,3.7317615e-05,0.007414011,0.0,0.13815837,-0.040721424,0.11489819,0.010169541,0.0012499903,3.4510333e-05,-0.010784673,1.8074987,0.13783172,-0.016336327,1.6447912,-0.009077282,488.10086,6.512882,0.5004805,0.4643311,0.18470527,0.13268116,inf,inf,inf,inf,1,1,1,1,2,0,2,1,3,1,1,1,0,0
45180000,45180000,908000,47.3977508,8.5456073,-15.400737,-1.3217212,-6.3931317,3.7317615e-05,0.007414011,0.0,0.9221005,0.025259323,0.110279486,-0.00039122603,0.0012499903,3.4510333e-05,-0.010784673,1.3255439,0.107867315,-0.021421349,1.6437438,-0.009077282,488.10086,6.5190134,0.4669676,0.45870852,0.17581676,0.1287277,inf,inf,inf,inf,1,1,1,1,2,0,2,1,3,1,1,1,0,0
45684000,45684000,908000,47.3977508,8.5456073,-14.810253,-1.301755,-6.4016676,3.7317615e-05,0.007414011,0.0,1.4038688,0.07550519,0.10453463,-0.010695482,0.0012499903,3.4510333e-05,-0.010784673,0.5532329,0.0775078,0.037533227,1.6430415,-0.009077282,488.10086,6.5275493,0.47802317,0.45919487,0.18229148,0.12991826,inf,inf,inf,inf,1,1,1,1,2,0,2,1,3,1,1,1,0,0
46180000,46180000,908000,47.3977508,8.5456073,-14.078678,-1.2579811,-6.40486,3.7317615e-05,0.007414011,0.0,1.4549582,0.100083984,0.10718019,-0.0055283247,0.0012499903,3.4510333e-05,-0.010784673,-0.37890884,-0.011239316,0.053790394,1.6424147,-0.009077282,488.10086,6.5307417,0.4889414,0.46290156,0.18270785,0.13150255,inf,inf,inf,inf,1,1,1,1,2,0,2,1,3,1,1,1,0,0
46676000,46676000,908000,47.3977508,8.5456073,-13.407461,-1.2141674,-6.4049187,3.7317615e-05,0.007414011,0.0,1.0720285,0.08685154,0.12373253,0.013124288,0.0012499903,3.4510333e-05,-0.010784673,-1.206626,-0.042364012,0.09256321,1.6423619,-0.009077282,488.10086,6.5308003,0.5001633,0.4627614,0.18036786,0.13256866,inf,inf,inf,inf,1,1,1,1,2,0,2,1,3,1,1,1,0,0
47180000,47180000,908000,47.3977508,8.5456073,-12.994761,-1.1688595,-6.4019012,3.7317615e-05,0.007414011,0.0,0.33953586,0.045274477,0.13017005,0.01631185,0.0012499903,3.4510333e-05,-0.010784673,-1.7404083,-0.14979468,-0.00905618,1.6435965,-0.009077282,488.10086,6.527783,0.46733823,0.4580669,0.16312686,0.12889989,inf,inf,inf,inf,1,1,1,1,2,0,2,1,3,1,1,1,0,0
47676000,47676000,908000,47.3977508,8.5456073,-12.9978075,-1.1553465,-6.394707,3.7317615e-05,0.007414011,0.0,-0.54986465,-0.027447458,0.122365974,0.009939406,0.0012499903,3.4510333e-05,-0.010784673,-1.8498317,-0.16831754,0.0580186,1.6437136,-0.009077282,488.10086,6.520589,0.47714213,0.45797893,0.16874044,0.12987223,inf,inf,inf,inf,1,1,1,1,2,0,2,1,3,1,1,1,0,0
48180000,48180000,908000,47.3977508,8.5456073,-13.4530735,-1.179009,-6.385632,3.7317615e-05,0.007414011,0.0,-1.398209,-0.101964265,0.11721823,0.009978157,0.0012499903,3.4510333e-05,-0.010784673,-1.5530672,-0.16618906,-0.0124853095,1.644159,-0.009077282,488.10086,6.5115137,0.48809117,0.46262482,0.17805567,0.13151686,inf,inf,inf,inf,1,1,1,1,2,0,2,1,3,1,1,1,0,0
48684000,48684000,908000,47.3977508,8.5456073,-14.286997,-1.2322289,-6.3747277,3.7317615e-05,0.007414011,0.0,-1.9843507,-0.16054903,0.09906706,0.0016657871,0.0012499903,3.4510333e-05,-0.010784673,-0.7898275,-0.12604466,-0.021954065,1.6441141,-0.009077282,488.10086,6.5006094,0.49978003,0.4632304,0.18592918,0.13259879,inf,inf,inf,inf,1,1,1,1,2,0,2,1,3,1,1,1,0,0
49180000,49180000,908000,47.3977508,8.5456073,-15.316921,-1.3039423,-6.3736978,3.7317615e-05,0.007414011,0.0,-2.1585536,-0.18547752,0.07852104,-0.014004142,0.0012499903,3.4510333e-05,-0.010784673,0.14426261,-0.016839854,-0.0011082737,1.6445315,-0.009077282,488.10086,6.4995794,0.46655664,0.45765677,0.16955526,0.12869525,inf,inf,inf,inf,1,1,1,1,2,0,2,1,3,1,1,1,0,0
49676000,49676000,908000,47.3977508,8.5456073,-16.34646,-1.3802732,-6.3772893,3.7317615e-05,0.007414011,0.0,-1.8990434,-0.17727645,0.08154576,-0.008318203,0.0012499903,3.4510333e-05,-0.010784673,0.97659993,0.041274004,0.031284053,1.6445587,-0.009077282,488.10086,6.503171,0.47654194,0.45746842,0.16979787,0.12974504,inf,inf,inf,inf,1,1,1,1,2,0,2,1,3,1,1,1,0,0
50180000,50180000,908000,47.3977508,8.5456073,-17.16743,-1.4494933,-6.3757477,3.7317615e-05,0.007414011,0.0,-1.248246,-0.13597223,0.10240448,0.012825621,0.0012499903,3.4510333e-05,-0.010784673,1.5916007,0.07906329,0.05904119,1.6446438,-0.009077282,488.10086,6.5016294,0.48787177,0.4621601,0.17167532,0.13152772,inf,inf,inf,inf,1,1,1,1,2,0,2,1,3,1,1,1,0,0
50684000,50684000,908000,47.3977508,8.5456073,-17.593426,-1.4960401,-6.3739,3.7317615e-05,0.007414011,0.0,-0.36407205,-0.07155218,0.10635176,0.012755684,0.0012499903,3.4510333e-05,-0.010784673,1.8805121,0.16728604,0.023931263,1.644549,-0.009077282,488.10086,6.4997816,0.49967572,0.46287513,0.17874908,0.13265583,inf,inf,inf,inf,1,1,1,1,2,0,2,1,3,1,1,1,0,0
51180000,51180000,908000,47.3977508,8.5456073,-17.577106,-1.5104725,-6.386119,3.7317615e-05,0.007414011,0.0,0.50864774,-0.0020846785,0.10396616,-0.002486548,0.0012499903,3.4510333e-05,-0.010784673,1.6237538,0.16252401,0.038665716,1.6441453,-0.009077282,488.10086,6.5120006,0.46648312,0.45743307,0.17045073,0.12868057,inf,inf,inf,inf,1,1,1,1,2,0,2,1,3,1,1,1,0,0
51676000,51676000,908000,47.3977508,8.5456073,-17.158937,-1.4947557,-6.3940434,3.7317615e-05,0.007414011,0.0,1.1766403,0.060057707,0.10678828,-0.00494637,0.0012499903,3.4510333e-05,-0.010784673,1.0433307,0.12538964,0.03786478,1.6430492,-0.009077282,488.10086,6.519925,0.4765479,0.45752588,0.17882669,0.12967339,inf,inf,inf,inf,1,1,1,1,2,0,2,1,3,1,1,1,0,0
52180000,52180000,908000,47.3977508,8.5456073,-16.465792,-1.4525578,-6.39437,3.7317615e-05,0.007414011,0.0,1.4858278,0.09761524,0.10062411,-0.0069020754,0.0012499903,3.4510333e-05,-0.010784673,0.18053809,0.036635872,-0.008184462,1.6427797,-0.009077282,488.10086,6.5202518,0.488246,0.46230212,0.1831186,0.13143943,inf,inf,inf,inf,1,1,1,1,2,0,2,1,3,1,1,1,0,0
52676000,52676000,908000,47.3977508,8.5456073,-15.723689,-1.3985131,-6.391284,3.7317615e-05,0.007414011,0.0,1.350983,0.10064827,0.10057583,0.0006487556,0.0012499903,3.4510333e-05,-0.010784673,-0.7168021,-0.031194327,0.0051874663,1.6422119,-0.009077282,488.10086,6.5171657,0.49957627,0.46225277,0.18277575,0.13247113,inf,inf,inf,inf,1,1,1,1,2,0,2,1,3,1,1,1,0,0
53180000,53180000,908000,47.3977508,8.5456073,-15.117702,-1.349535,-6.3904963,3.7317615e-05,0.007414011,0.0,0.8055505,0.063780844,0.11661686,0.015523577,0.0012499903,3.4510333e-05,-0.010784673,-1.4876653,-0.110433884,0.03456976,1.6424766,-0.009077282,488.10086,6.516378,0.46693403,0.45740065,0.16402704,0.12877227,inf,inf,inf,inf,1,1,1,1,2,0,2,1,3,1,1,1,0,0
53676000,53676000,908000,47.3977508,8.5456073,-14.858276,-1.331206,-6.3768215,3.7317615e-05,0.007414011,0.0,-0.011578273,0.0016804663,0.105633885,0.010620241,0.0012499903,3.4510333e-05,-0.010784673,-1.8363826,-0.13989617,0.024564562,1.6428176,-0.009077282,488.10086,6.502703,0.47689152,0.46118477,0.16674642,0.13028762,inf,inf,inf,inf,1,1,1,1,2,0,2,1,3,1,1,1,0,0
54180000,54180000,908000,47.3977508,8.5456073,-15.03955,-1.337852,-6.3709917,3.7317615e-05,0.007414011,0.0,-0.9166057,-0.06651452,0.10291535,0.010025851,0.0012499903,3.4510333e-05,-0.010784673,-1.7913833,-0.16608207,0.029687768,1.6431941,-0.009077282,488.10086,6.4968734,0.4878787,0.4617578,0.1739503,0.13136706,inf,inf,inf,inf,1,1,1,1,2,0,2,1,3,1,1,1,0,0
54676000,54676000,908000,47.3977508,8.5456073,-15.653474,-1.3767648,-6.3594527,3.7317615e-05,0.007414011,0.0,-1.6694779,-0.13170345,0.08942491,0.004766795,0.0012499903,3.4510333e-05,-0.010784673,-1.3042389,-0.11700963,-0.014781951,1.6438065,-0.009077282,488.10086,6.4853344,0.49848732,0.46572247,0.1821712,0.13282667,inf,inf,inf,inf,1,1,1,1,2,0,2,1,3,1,1,1,0,0
55180000,55180000,908000,47.3977508,8.5456073,-16.597124,-1.439239,-6.358258,3.7317615e-05,0.007414011,0.0,-2.0949655,-0.1730619,0.06913612,-0.012016327,0.0012499903,3.4510333e-05,-0.010784673,-0.42064583,-0.057975672,-0.011053867,1.6442086,-0.009077282,488.10086,6.4841394,0.46636394,0.45685032,0.16919148,0.12851351,inf,inf,inf,inf,1,1,1,1,2,0,2,1,3,1,1,1,0,0
55676000,55676000,908000,47.3977508,8.5456073,-17.64639,-1.5193335,-6.363208,3.7317615e-05,0.007414011,0.0,-2.0834224,-0.18766785,0.06125073,-0.01755628,0.0012499903,3.4510333e-05,-0.010784673,0.4787065,-0.018160688,0.0550067,1.6441635,-0.009077282,488.10086,6.4890895,0.4762479,0.45668995,0.17102061,0.12956111,inf,inf,inf,inf,1,1,1,1,2,0,2,1,3,1,1,1,0,0
56180000,56180000,908000,47.3977508,8.5456073,-18.60777,-1.5999018,-6.3686914,3.7317615e-05,0.007414011,0.0,-1.6322787,-0.162352,0.08247522,0.0027207725,0.0012499903,3.4510333e-05,-0.010784673,1.3199201,0.11798427,0.08463859,1.6441603,-0.009077282,488.10086,6.494573,0.48756534,0.46136042,0.17208466,0.1313736,inf,inf,inf,inf,1,1,1,1,2,0,2,1,3,1,1,1,0,0
56676000,56676000,908000,47.3977508,8.5456073,-19.259531,-1.6621758,-6.365812,3.7317615e-05,0.007414011,0.0,-0.8642403,-0.10749028,0.100156166,0.017900027,0.0012499903,3.4510333e-05,-0.010784673,1.7471305,0.1750599,-0.015021301,1.644313,-0.009077282,488.10086,6.4916935,0.49842545,0.4654101,0.17566594,0.13294548,inf,inf,inf,inf,1,1,1,1,2,0,2,1,3,1,1,1,0,0
57180000,57180000,908000,47.3977508,8.5456073,-19.504377,-1.687517,-6.3716054,3.7317615e-05,0.007414011,0.0,0.05091006,-0.032679137,0.100236654,0.008071114,0.0012499903,3.4510333e-05,-0.010784673,1.8488233,0.15095258,-0.023408791,1.6440706,-0.009077282,488.10086,6.497487,0.46618354,0.45656574,0.16633928,0.12857042,inf,inf,inf,inf,1,1,1,1,2,0,2,1,3,1,1,1,0,0
57684000,57684000,908000,47.3977508,8.5456073,-19.28946,-1.6769556,-6.3634577,3.7317615e-05,0.007414011,0.0,0.8808866,0.039674554,0.08782738,0.0028224909,0.0012499903,3.4510333e-05,-0.010784673,1.4201599,0.123964675,0.008033588,1.6433946,-0.009077282,488.10086,6.4893394,0.47702113,0.46101263,0.17600155,0.13019209,inf,inf,inf,inf,1,1,1,1,2,0,2,1,3,1,1,1,0,0
58180000,58180000,908000,47.3977508,8.5456073,-18.724623,-1.6528819,-6.3667874,3.7317615e-05,0.007414011,0.0,1.4133198,0.083707415,0.07539919,-0.010411978,0.0012499903,3.4510333e-05,-0.010784673,0.67910993,0.028721055,-0.033820044,1.6424497,-0.009077282,488.10086,6.492669,0.48775497,0.46082577,0.18270826,0.13112545,inf,inf,inf,inf,1,1,1,1,2,0,2,1,3,1,1,1,0,0
58684000,58684000,908000,47.3977508,8.5456073,-17.974611,-1.6077139,-6.370354,3.7317615e-05,0.007414011,0.0,1.5293993,0.10778327,0.072832525,-0.0103801405,0.0012499903,3.4510333e-05,-0.010784673,-0.23375762,0.03068763,0.025455838,1.6420861,-0.009077282,488.10086,6.496236,0.5000819,0.46539772,0.18524851,0.13285401,inf,inf,inf,inf,1,1,1,1,2,0,2,1,3,1,1,1,0,0
59180000,59180000,908000,47.3977508,8.5456073,-17.266043,-1.5663295,-6.373657,3.7317615e-05,0.007414011,0.0,1.2105606,0.09392503,0.08393543,0.001212826,0.0012499903,3.4510333e-05,-0.010784673,-1.069719,-0.061010633,0.055655833,1.6418952,-0.009077282,488.10086,6.499539,0.46662292,0.4558153,0.16608763,0.12845188,inf,inf,inf,inf,1,1,1,1,2,0,2,1,3,1,1,1,0,0
59676000,59676000,908000,47.3977508,8.5456073,-16.808086,-1.5364822,-6.3649025,3.7317615e-05,0.007414011,0.0,0.52828366,0.053980764,0.09485351,0.015504358,0.0012499903,3.4510333e-05,-0.010784673,-1.6578262,-0.11220372,0.008814967,1.6419402,-0.009077282,488.10086,6.490784,0.47671908,0.45961407,0.16684473,0.13001965,inf,inf,inf,inf,1,1,1,1,2,0,2,1,3,1,1,1,0,0
60180000,60180000,908000,47.3977508,8.5456073,-16.74686,-1.5259062,-6.3589535,3.7317615e-05,0.007414011,0.0,-0.3659747,-0.010982749,0.08680758,0.007964088,0.0012499903,3.4510333e-05,-0.010784673,-1.8760996,-0.1440128,0.034777444,1.6431444,-0.009077282,488.10086,6.484835,0.48783842,0.46414456,0.17141347,0.13167714,inf,inf,inf,inf,1,1,1,1,2,0,2,1,3,1,1,1,0,0
60676000,60676000,908000,47.3977508,8.5456073,-17.128408,-1.5456203,-6.350782,3.7317615e-05,0.007414011,0.0,-1.2215257,-0.08173808,0.08397008,0.009597804,0.0012499903,3.4510333e-05,-0.010784673,-1.5648514,-0.11577391,-0.03247149,1.6434327,-0.009077282,488.10086,6.4766636,0.498397,0.46393394,0.17861126,0.13254277,inf,inf,inf,inf,1,1,1,1,2,0,2,1,3,1,1,1,0,0
61180000,61180000,908000,47.3977508,8.5456073,-17.906158,-1.5980028,-6.3501906,3.7317615e-05,0.007414011,0.0,-1.8512297,-0.13876879,0.068402424,-0.005452523,0.0012499903,3.4510333e-05,-0.010784673,-0.91395456,-0.06512455,0.009484588,1.6435938,-0.009077282,488.10086,6.4760723,0.46632516,0.45893562,0.16763224,0.12873605,inf,inf,inf,inf,1,1,1,1,2,0,2,1,3,1,1,1,0,0
61676000,61676000,908000,47.3977508,8.5456073,-18.915157,-1.6747252,-6.3502727,3.7317615e-05,0.007414011,0.0,-2.0875082,-0.17175372,0.05587996,-0.012982352,0.0012499903,3.4510333e-05,-0.010784673,-0.0063945767,-0.058702,0.025719402,1.6437566,-0.009077282,488.10086,6.4761543,0.47610417,0.45858407,0.17133759,0.129733,inf,inf,inf,inf,1,1,1,1,2,0,2,1,3,1,1,1,0,0
62180000,62180000,908000,47.3977508,8.5456073,-19.961056,-1.7514628,-6.350003,3.7317615e-05,0.007414011,0.0,-1.8740876,-0.1626369,0.05527064,-0.0070918975,0.0012499903,3.4510333e-05,-0.010784673,0.8830611,0.04253536,0.05395058,1.6434828,-0.009077282,488.10086,6.4758844,0.48737103,0.4629556,0.1731383,0.13150403,inf,inf,inf,inf,1,1,1,1,2,0,2,1,3,1,1,1,0,0
62684000,62684000,908000,47.3977508,8.5456073,-20.806414,-1.8206986,-6.3409123,3.7317615e-05,0.007414011,0.0,-1.254361,-0.1284813,0.07307113,0.017762015,0.0012499903,3.4510333e-05,-0.010784673,1.5852098,0.090087116,-0.0059613953,1.6434963,-0.009077282,488.10086,6.466794,0.49917784,0.46338156,0.17553866,0.13268664,inf,inf,inf,inf,1,1,1,1,2,0,2,1,3,1,1,1,0,0
63180000,63180000,908000,47.3977508,8.5456073,-21.274355,-1.8781066,-6.335758,3.7317615e-05,0.007414011,0.0,-0.39821237,-0.06952187,0.066467784,0.009078147,0.0012499903,3.4510333e-05,-0.010784673,1.8931254,0.14868405,0.054354776,1.643162,-0.009077282,488.10086,6.46164,0.46616232,0.45760086,0.16390729,0.12871113,inf,inf,inf,inf,1,1,1,1,2,0,2,1,3,1,1,1,0,0
63676000,63676000,908000,47.3977508,8.5456073,-21.298977,-1.9032534,-6.3338985,3.7317615e-05,0.007414011,0.0,0.49352655,0.0040555946,0.055932958,-0.0012573146,0.0012499903,3.4510333e-05,-0.010784673,1.7067727,0.1552374,0.048944723,1.6424176,-0.009077282,488.10086,6.45978,0.47611296,0.46119973,0.17230932,0.13014716,inf,inf,inf,inf,1,1,1,1,2,0,2,1,3,1,1,1,0,0
64180000,64180000,908000,47.3977508,8.5456073,-20.900621,-1.8920797,-6.3325286,3.7317615e-05,0.007414011,0.0,1.2141516,0.073761,0.04849345,-0.005885672,0.0012499903,3.4510333e-05,-0.010784673,1.1581674,0.13930966,0.024581326,1.6417325,-0.009077282,488.10086,6.4584103,0.48759544,0.46170714,0.1808788,0.13123906,inf,inf,inf,inf,1,1,1,1,2,0,2,1,3,1,1,1,0,0
64676000,64676000,908000,47.3977508,8.5456073,-20.227226,-1.8534986,-6.3335204,3.7317615e-05,0.007414011,0.0,1.5695835,0.12068991,0.038050752,-0.012177474,0.0012499903,3.4510333e-05,-0.010784673,0.3042878,0.07929315,0.0052722166,1.6415113,-0.009077282,488.10086,6.459402,0.49892458,0.46557608,0.1856314,0.13276203,inf,inf,inf,inf,1,1,1,1,2,0,2,1,3,1,1,1,0,0
65180000,65180000,908000,47.3977508,8.5456073,-19.459818,-1.804358,-6.3316197,3.7317615e-05,0.007414011,0.0,1.4829646,0.13379544,0.035814367,-0.0067699193,0.0012499903,3.4510333e-05,-0.010784673,-0.6151736,0.016434,0.009348615,1.64159,-0.009077282,488.10086,6.4575014,0.46648896,0.4568266,0.16795495,0.1285693,inf,inf,inf,inf,1,1,1,1,2,0,2,1,3,1,1,1,0,0
65676000,65676000,908000,47.3977508,8.5456073,-18.831505,-1.7546511,-6.3192635,3.7317615e-05,0.007414011,0.0,0.98266536,0.10841014,0.045654308,0.013551917,0.0012499903,3.4510333e-05,-0.010784673,-1.3859265,-0.06518379,0.026110558,1.6421573,-0.009077282,488.10086,6.445145,0.47666132,0.45688072,0.16825171,0.12968442,inf,inf,inf,inf,1,1,1,1,2,0,2,1,3,1,1,1,0,0
66180000,66180000,908000,47.3977508,8.5456073,-18.51527,-1.7163421,-6.3051996,3.7317615e-05,0.007414011,0.0,0.17076182,0.055444498,0.03627278,0.010576469,0.0012499903,3.4510333e-05,-0.010784673,-1.778839,-0.11937845,0.0034645197,1.6432519,-0.009077282,488.10086,6.4310813,0.4878993,0.46156958,0.17082416,0.13142708,inf,inf,inf,inf,1,1,1,1,2,0,2,1,3,1,1,1,0,0
66676000,66676000,908000,47.3977508,8.5456073,-18.634756,-1.7147685,-6.294688,3.7317615e-05,0.007414011,0.0,-0.73508185,-0.024828324,0.0246951,0.005424849,0.0012499903,3.4510333e-05,-0.010784673,-1.7832649,-0.11232812,-0.0009713694,1.643457,-0.009077282,488.10086,6.42057,0.49848837,0.46551058,0.17649911,0.13289039,inf,inf,inf,inf,1,1,1,1,2,0,2,1,3,1,1,1,0,0
67180000,67180000,908000,47.3977508,8.5456073,-19.188587,-1.7445327,-6.279834,3.7317615e-05,0.007414011,0.0,-1.5295928,-0.09236095,0.007378354,-0.00051612774,0.0012499903,3.4510333e-05,-0.010784673,-1.3087237,-0.115975454,-0.008060596,1.643876,-0.009077282,488.10086,6.4057155,0.46638456,0.45658022,0.16631322,0.12849946,inf,inf,inf,inf,1,1,1,1,2,0,2,1,3,1,1,1,0,0
67676000,67676000,908000,47.3977508,8.5456073,-20.068615,-1.7981055,-6.278814,3.7317615e-05,0.007414011,0.0,-1.9983321,-0.13403879,-0.010138262,-0.014364641,0.0012499903,3.4510333e-05,-0.010784673,-0.5307491,-0.082425065,-0.038721595,1.64386,-0.009077282,488.10086,6.4046955,0.4760964,0.46033123,0.17161244,0.13001125,inf,inf,inf,inf,1,1,1,1,2,0,2,1,3,1,1,1,0,0
68180000,68180000,908000,47.3977508,8.5456073,-21.105059,-1.8651091,-6.284242,3.7317615e-05,0.007414011,0.0,-2.0384662,-0.1498179,-0.015027991,-0.01752529,0.0012499903,3.4510333e-05,-0.010784673,0.3988819,-0.016986784,-0.0005438923,1.6437916,-0.009077282,488.10086,6.410124,0.48730493,0.46092647,0.17463079,0.1312323,inf,inf,inf,inf,1,1,1,1,2,0,2,1,3,1,1,1,0,0
68684000,68684000,908000,47.3977508,8.5456073,-22.054068,-1.9498347,-6.2781153,3.7317615e-05,0.007414011,0.0,-1.6275867,-0.13997294,-0.0019747876,0.0042276513,0.0012499903,3.4510333e-05,-0.010784673,1.255155,0.07488219,0.005270354,1.6436876,-0.009077282,488.10086,6.403997,0.4991219,0.4656623,0.17644362,0.13303947,inf,inf,inf,inf,1,1,1,1,2,0,2,1,3,1,1,1,0,0
69180000,69180000,908000,47.3977508,8.5456073,-22.712963,-2.0128677,-6.2591853,3.7317615e-05,0.007414011,0.0,-0.8838727,-0.08911954,-0.0029648982,0.014579898,0.0012499903,3.4510333e-05,-0.010784673,1.7838889,0.11349939,-0.035334375,1.6430223,-0.009077282,488.10086,6.385067,0.46611738,0.45609808,0.16260095,0.12857726,inf,inf,inf,inf,1,1,1,1,2,0,2,1,3,1,1,1,0,0
69676000,69676000,908000,47.3977508,8.5456073,-22.95608,-2.0506754,-6.255315,3.7317615e-05,0.007414011,0.0,0.020785458,-0.019210301,-0.018264195,-0.0020830443,0.0012499903,3.4510333e-05,-0.010784673,1.8897046,0.13991152,-0.039770264,1.6425382,-0.009077282,488.10086,6.3811965,0.47603664,0.45998052,0.16908297,0.13008493,inf,inf,inf,inf,1,1,1,1,2,0,2,1,3,1,1,1,0,0
70180000,70180000,908000,47.3977508,8.5456073,-22.754004,-2.0562475,-6.258445,3.7317615e-05,0.007414011,0.0,0.8757431,0.04859641,-0.016652478,-0.0028160743,0.0012499903,3.4510333e-05,-0.010784673,1.5024719,0.11899873,0.0010328366,1.6420146,-0.009077282,488.10086,6.3843265,0.48740056,0.4607252,0.17771992,0.13119994,inf,inf,inf,inf,1,1,1,1,2,0,2,1,3,1,1,1,0,0
70684000,70684000,908000,47.3977508,8.5456073,-22.172714,-2.0188508,-6.2509937,3.7317615e-05,0.007414011,0.0,1.4604131,0.10919538,-0.032724977,-0.010272954,0.0012499903,3.4510333e-05,-0.010784673,0.8302841,0.08056368,-0.03312714,1.6417636,-0.009077282,488.10086,6.3768754,0.49955234,0.4655822,0.18491484,0.13291322,inf,inf,inf,inf,1,1,1,1,2,0,2,1,3,1,1,1,0,0
71180000,71180000,908000,47.3977508,8.5456073,-21.389978,-1.9640901,-6.2587924,3.7317615e-05,0.007414011,0.0,1.633288,0.1328182,-0.037986763,-0.016151171,0.0012499903,3.4510333e-05,-0.010784673,-0.10466167,0.0012180534,0.025230458,1.641602,-0.009077282,488.10086,6.384674,0.46630973,0.45606694,0.16895209,0.12848097,inf,inf,inf,inf,1,1,1,1,2,0,2,1,3,1,1,1,0,0
71684000,71684000,908000,47.3977508,8.5456073,-20.61296,-1.9041537,-6.259887,3.7317615e-05,0.007414011,0.0,1.3551447,0.12288959,-0.026701147,-0.0012274543,0.0012499903,3.4510333e-05,-0.010784673,-0.9883303,-0.06353164,0.050988976,1.6418273,-0.009077282,488.10086,6.385769,0.4773572,0.46056288,0.17016497,0.13026126,inf,inf,inf,inf,1,1,1,1,2,0,2,1,3,1,1,1,0,0
72180000,72180000,908000,47.3977508,8.5456073,-20.075068,-1.8490888,-6.253755,3.7317615e-05,0.007414011,0.0,0.7013944,0.08017509,-0.015177423,0.011765305,0.0012499903,3.4510333e-05,-0.010784673,-1.6692512,-0.12984228,-0.049162652,1.6429068,-0.009077282,488.10086,6.379637,0.48786107,0.4643512,0.17130817,0.13180478,inf,inf,inf,inf,1,1,1,1,2,0,2,1,3,1,1,1,0,0
72676000,72676000,908000,47.3977508,8.5456073,-19.918953,-1.8212942,-6.2553287,3.7317615e-05,0.007414011,0.0,-0.17305847,0.011440241,-0.017259354,0.0028767502,0.0012499903,3.4510333e-05,-0.010784673,-1.8821406,-0.13557108,0.0021727753,1.6432863,-0.009077282,488.10086,6.3812103,0.49854186,0.4640177,0.17513952,0.1326726,inf,inf,inf,inf,1,1,1,1,2,0,2,1,3,1,1,1,0,0
73180000,73180000,908000,47.3977508,8.5456073,-20.2049,-1.8227764,-6.2531247,3.7317615e-05,0.007414011,0.0,-1.0625064,-0.061622623,-0.009504633,0.009863501,0.0012499903,3.4510333e-05,-0.010784673,-1.6065338,-0.18702118,-0.027056782,1.6436938,-0.009077282,488.10086,6.3790064,0.4664092,0.45891118,0.1645246,0.1287884,inf,inf,inf,inf,1,1,1,1,2,0,2,1,3,1,1,1,0,0
73684000,73684000,908000,47.3977508,8.5456073,-20.907091,-1.8564657,-6.2460365,3.7317615e-05,0.007414011,0.0,-1.7426084,-0.12429412,-0.029004285,-0.0052413605,0.0012499903,3.4510333e-05,-0.010784673,-1.0305537,-0.10444713,-0.04900619,1.6441529,-0.009077282,488.10086,6.371918,0.47693735,0.45928767,0.17116073,0.12987775,inf,inf,inf,inf,1,1,1,1,2,0,2,1,3,1,1,1,0,0
74180000,74180000,908000,47.3977508,8.5456073,-21.855461,-1.9187123,-6.2481956,3.7317615e-05,0.007414011,0.0,-2.0354416,-0.1624999,-0.040372394,-0.014134505,0.0012499903,3.4510333e-05,-0.010784673,-0.12494606,-0.03353589,-0.004557892,1.6438565,-0.009077282,488.10086,6.3740773,0.4872387,0.46296242,0.17537257,0.13139385,inf,inf,inf,inf,1,1,1,1,2,0,2,1,3,1,1,1,0,0
74676000,74676000,908000,47.3977508,8.5456073,-22.855173,-1.9909841,-6.2598867,3.7317615e-05,0.007414011,0.0,-1.8925316,-0.16191186,-0.03851363,-0.01652399,0.0012499903,3.4510333e-05,-0.010784673,0.72861904,0.042157885,0.06554741,1.6435126,-0.009077282,488.10086,6.3857684,0.49811625,0.4667352,0.17746128,0.13296995,inf,inf,inf,inf,1,1,1,1,2,0,2,1,3,1,1,1,0,0
75180000,75180000,908000,47.3977508,8.5456073,-23.6916,-2.060736,-6.271154,3.7317615e-05,0.007414011,0.0,-1.3282452,-0.12796165,-0.008426016,0.004643352,0.0012499903,3.4510333e-05,-0.010784673,1.4353677,0.10208119,0.07655843,1.6435496,-0.009077282,488.10086,6.3970356,0.46606615,0.4575888,0.16250664,0.1286718,inf,inf,inf,inf,1,1,1,1,2,0,2,1,3,1,1,1,0,0
75684000,75684000,908000,47.3977508,8.5456073,-24.172909,-2.1053185,-6.2776327,3.7317615e-05,0.007414011,0.0,-0.48733348,-0.06641275,0.010134877,0.011730328,0.0012499903,3.4510333e-05,-0.010784673,1.8183515,0.12585986,0.0503147,1.6431916,-0.009077282,488.10086,6.4035144,0.47671,0.46183428,0.16721913,0.13031256,inf,inf,inf,inf,1,1,1,1,2,0,2,1,3,1,1,1,0,0
76180000,76180000,908000,47.3977508,8.5456073,-24.199678,-2.1216536,-6.2802477,3.7317615e-05,0.007414011,0.0,0.4125245,0.0061305533,0.0065335496,0.0029134117,0.0012499903,3.4510333e-05,-0.010784673,1.7262284,0.1665131,0.010488554,1.6426766,-0.009077282,488.10086,6.4061294,0.48713693,0.46136376,0.17447782,0.13116471,inf,inf,inf,inf,1,1,1,1,2,0,2,1,3,1,1,1,0,0
76676000,76676000,908000,47.3977508,8.5456073,-23.805702,-2.109602,-6.2824926,3.7317615e-05,0.007414011,0.0,1.1588895,0.06750105,0.007343239,0.0012767729,0.0012499903,3.4510333e-05,-0.010784673,1.2413065,0.138302,-0.0105826175,1.6420373,-0.009077282,488.10086,6.4083743,0.49819434,0.46508804,0.1821767,0.13261208,inf,inf,inf,inf,1,1,1,1,2,0,2,1,3,1,1,1,0,0
77180000,77180000,908000,47.3977508,8.5456073,-23.083485,-2.0677412,-6.2752423,3.7317615e-05,0.007414011,0.0,1.5847261,0.1134491,-0.009017457,-0.0063622277,0.0012499903,3.4510333e-05,-0.010784673,0.40335816,0.026143271,-0.04966091,1.6417936,-0.009077282,488.10086,6.401124,0.4660783,0.4560968,0.1689827,0.12833245,inf,inf,inf,inf,1,1,1,1,2,0,2,1,3,1,1,1,0,0
77676000,77676000,908000,47.3977508,8.5456073,-22.2636,-2.006339,-6.2806716,3.7317615e-05,0.007414011,0.0,1.5673685,0.12682521,-0.015473476,-0.012753556,0.0012499903,3.4510333e-05,-0.010784673,-0.53373617,0.010306306,0.013777054,1.6419108,-0.009077282,488.10086,6.4065533,0.4762392,0.45965457,0.17124873,0.12991774,inf,inf,inf,inf,1,1,1,1,2,0,2,1,3,1,1,1,0,0
78180000,78180000,908000,47.3977508,8.5456073,-21.544891,-1.9446536,-6.2843895,3.7317615e-05,0.007414011,0.0,1.1167785,0.099374756,0.0035922832,0.005225269,0.0012499903,3.4510333e-05,-0.010784673,-1.284812,-0.12547979,0.0016214325,1.6422919,-0.009077282,488.10086,6.410271,0.4876937,0.46399346,0.1725453,0.13168205,inf,inf,inf,inf,1,1,1,1,2,0,2,1,3,1,1,1,0,0
78676000,78676000,908000,47.3977508,8.5456073,-21.141088,-1.9123212,-6.2949367,3.7317615e-05,0.007414011,0.0,0.35115156,0.040918447,0.023435468,0.011086776,0.0012499903,3.4510333e-05,-0.010784673,-1.7744492,-0.13753724,0.019996425,1.6428599,-0.009077282,488.10086,6.4208183,0.49848646,0.4637594,0.17474116,0.13266078,inf,inf,inf,inf,1,1,1,1,2,0,2,1,3,1,1,1,0,0
79180000,79180000,908000,47.3977508,8.5456073,-21.15994,-1.9063108,-6.2954845,3.7317615e-05,0.007414011,0.0,-0.56063384,-0.029797709,0.02824773,0.010823811,0.0012499903,3.4510333e-05,-0.010784673,-1.870249,-0.1260668,0.029594636,1.6433258,-0.009077282,488.10086,6.421366,0.46635407,0.45882758,0.16295812,0.12885134,inf,inf,inf,inf,1,1,1,1,2,0,2,1,3,1,1,1,0,0
79684000,79684000,908000,47.3977508,8.5456073,-21.626509,-1.9382098,-6.289177,3.7317615e-05,0.007414011,0.0,-1.3766323,-0.09883429,0.024381114,0.009395468,0.0012499903,3.4510333e-05,-0.010784673,-1.4366064,-0.10416303,-0.04123896,1.6439344,-0.009077282,488.10086,6.4150586,0.47690526,0.45958778,0.16959459,0.1300287,inf,inf,inf,inf,1,1,1,1,2,0,2,1,3,1,1,1,0,0
80180000,80180000,908000,47.3977508,8.5456073,-22.426754,-1.9954648,-6.2933736,3.7317615e-05,0.007414011,0.0,-1.8836162,-0.14488328,0.008367432,-0.0096559925,0.0012499903,3.4510333e-05,-0.010784673,-0.65767986,-0.050206114,0.031306405,1.6439652,-0.009077282,488.10086,6.4192553,0.48715243,0.4597178,0.17502928,0.13105464,inf,inf,inf,inf,1,1,1,1,2,0,2,1,3,1,1,1,0,0
80676000,80676000,908000,47.3977508,8.5456073,-23.399393,-2.0746548,-6.308288,3.7317615e-05,0.007414011,0.0,-1.978244,-0.16529098,0.012685443,-0.012795396,0.0012499903,3.4510333e-05,-0.010784673,0.2849878,0.014697055,0.026993452,1.6439487,-0.009077282,488.10086,6.43417,0.49798825,0.4638155,0.17821868,0.13267247,inf,inf,inf,inf,1,1,1,1,2,0,2,1,3,1,1,1,0,0
81180000,81180000,908000,47.3977508,8.5456073,-24.351374,-2.153512,-6.309703,3.7317615e-05,0.007414011,0.0,-1.631672,-0.14634839,0.02018849,-0.002571913,0.0012499903,3.4510333e-05,-0.010784673,1.1118009,0.09313962,0.008783302,1.6436409,-0.009077282,488.10086,6.4355845,0.4660882,0.4553257,0.16316703,0.12854294,inf,inf,inf,inf,1,1,1,1,2,0,2,1,3,1,1,1,0,0
81676000,81676000,908000,47.3977508,8.5456073,-25.034573,-2.2126203,-6.31057,3.7317615e-05,0.007414011,0.0,-0.9315946,-0.099928156,0.040669356,0.013537309,0.0012499903,3.4510333e-05,-0.010784673,1.7337146,0.1304533,0.04025921,1.6433417,-0.009077282,488.10086,6.4364514,0.47600493,0.4592836,0.16631319,0.13013549,inf,inf,inf,inf,1,1,1,1,2,0,2,1,3,1,1,1,0,0
82180000,82180000,908000,47.3977508,8.5456073,-25.317606,-2.244442,-6.308239,3.7317615e-05,0.007414011,0.0,-0.029206237,-0.03081601,0.039975435,0.009494297,0.0012499903,3.4510333e-05,-0.010784673,1.8665228,0.15115748,0.03363378,1.6430057,-0.009077282,488.10086,6.4341207,0.48724464,0.46395493,0.17257497,0.13180476,inf,inf,inf,inf,1,1,1,1,2,0,2,1,3,1,1,1,0,0
82684000,82684000,908000,47.3977508,8.5456073,-25.154125,-2.238355,-6.306172,3.7317615e-05,0.007414011,0.0,0.83879584,0.043581456,0.038052544,0.007077457,0.0012499903,3.4510333e-05,-0.010784673,1.5634092,0.15272012,0.027765518,1.6425117,-0.009077282,488.10086,6.4320536,0.49913782,0.46450317,0.1807846,0.13282485,inf,inf,inf,inf,1,1,1,1,2,0,2,1,3,1,1,1,0,0
83180000,83180000,908000,47.3977508,8.5456073,-24.60714,-2.1995826,-6.3131638,3.7317615e-05,0.007414011,0.0,1.4557519,0.1032547,0.027683014,-0.009656487,0.0012499903,3.4510333e-05,-0.010784673,0.8955254,0.09847024,-0.0103227785,1.6418234,-0.009077282,488.10086,6.4390454,0.4660999,0.4587124,0.16883571,0.12878467,inf,inf,inf,inf,1,1,1,1,2,0,2,1,3,1,1,1,0,0
83676000,83676000,908000,47.3977508,8.5456073,-23.840998,-2.135613,-6.3343706,3.7317615e-05,0.007414011,0.0,1.6740842,0.13447312,0.034398906,-0.01635861,0.0012499903,3.4510333e-05,-0.010784673,0.016344769,0.028374182,0.10839383,1.6419181,-0.009077282,488.10086,6.4602523,0.47621712,0.4623154,0.17248794,0.13028693,inf,inf,inf,inf,1,1,1,1,2,0,2,1,3,1,1,1,0,0
84180000,84180000,908000,47.3977508,8.5456073,-23.044106,-2.0624824,-6.3507495,3.7317615e-05,0.007414011,0.0,1.4502659,0.12589669,0.05603413,-0.0034559523,0.0012499903,3.4510333e-05,-0.010784673,-0.86675555,-0.06449931,0.062193718,1.6422201,-0.009077282,488.10086,6.476631,0.48771453,0.46261942,0.17421654,0.13145138,inf,inf,inf,inf,1,1,1,1,2,0,2,1,3,1,1,1,0,0
84684000,84684000,908000,47.3977508,8.5456073,-22.446005,-2.0041728,-6.3427615,3.7317615e-05,0.007414011,0.0,0.82755524,0.080603294,0.07574742,0.02127516,0.0012499903,3.4510333e-05,-0.010784673,-1.571118,-0.09113031,0.036166977,1.6423233,-0.009077282,488.10086,6.468643,0.49954057,0.46697676,0.17575656,0.13313766,inf,inf,inf,inf,1,1,1,1,2,0,2,1,3,1,1,1,0,0
85180000,85180000,908000,47.3977508,8.5456073,-22.219889,-1.9875212,-6.336812,3.7317615e-05,0.007414011,0.0,-0.022699855,0.011366984,0.067992695,0.012189504,0.0012499903,3.4510333e-05,-0.010784673,-1.870601,-0.13846199,-0.01835264,1.6423849,-0.009077282,488.10086,6.4626937,0.4664091,0.4569634,0.16210197,0.12853952,inf,inf,inf,inf,1,1,1,1,2,0,2,1,3,1,1,1,0,0
85676000,85676000,908000,47.3977508,8.5456073,-22.430084,-2.0000887,-6.3301606,3.7317615e-05,0.007414011,0.0,-0.90248805,-0.06035557,0.063989304,0.010839236,0.0012499903,3.4510333e-05,-0.010784673,-1.6757036,-0.13093579,-0.0016940756,1.6431025,-0.009077282,488.10086,6.4560423,0.47616106,0.460594,0.16762152,0.12998953,inf,inf,inf,inf,1,1,1,1,2,0,2,1,3,1,1,1,0,0
86180000,86180000,908000,47.3977508,8.5456073,-23.062853,-2.0455763,-6.318881,3.7317615e-05,0.007414011,0.0,-1.6113497,-0.12153783,0.04677456,0.0022342366,0.0012499903,3.4510333e-05,-0.010784673,-1.1139017,-0.068994105,-0.023969447,1.6435025,-0.009077282,488.10086,6.4447627,0.48719442,0.4609536,0.17407508,0.13106549,inf,inf,inf,inf,1,1,1,1,2,0,2,1,3,1,1,1,0,0
86676000,86676000,908000,47.3977508,8.5456073,-23.966696,-2.1119049,-6.314584,3.7317615e-05,0.007414011,0.0,-1.9500327,-0.15697691,0.02792456,-0.009689692,0.0012499903,3.4510333e-05,-0.010784673,-0.2271193,-0.045787685,-0.048805024,1.6437045,-0.009077282,488.10086,6.4404655,0.49796173,0.4645872,0.17865628,0.13256319,inf,inf,inf,inf,1,1,1,1,2,0,2,1,3,1,1,1,0,0
87180000,87180000,908000,47.3977508,8.5456073,-24.964235,-2.1934571,-6.3211036,3.7317615e-05,0.007414011,0.0,-1.8442491,-0.16120927,0.022598965,-0.014952825,0.0012499903,3.4510333e-05,-0.010784673,0.68166757,0.014909338,0.011010095,1.6433905,-0.009077282,488.10086,6.4469852,0.46598196,0.45940012,0.16401711,0.12885125,inf,inf,inf,inf,1,1,1,1,2,0,2,1,3,1,1,1,0,0
87676000,87676000,908000,47.3977508,8.5456073,-25.805286,-2.2737937,-6.328629,3.7317615e-05,0.007414011,0.0,-1.3247308,-0.13220297,0.046212114,0.0044450015,0.0012499903,3.4510333e-05,-0.010784673,1.4244438,0.12987258,0.13376492,1.6432824,-0.009077282,488.10086,6.4545107,0.47589374,0.45902246,0.16647093,0.12990771,inf,inf,inf,inf,1,1,1,1,2,0,2,1,3,1,1,1,0,0
88180000,88180000,908000,47.3977508,8.5456073,-26.322382,-2.3341649,-6.3347034,3.7317615e-05,0.007414011,0.0,-0.49948034,-0.07032386,0.0641116,0.011367802,0.0012499903,3.4510333e-05,-0.010784673,1.846469,0.15694587,0.020342877,1.6428245,-0.009077282,488.10086,6.460585,0.4871345,0.46336982,0.17115664,0.13160673,inf,inf,inf,inf,1,1,1,1,2,0,2,1,3,1,1,1,0,0
88676000,88676000,908000,47.3977508,8.5456073,-26.396526,-2.3597791,-6.3298864,3.7317615e-05,0.007414011,0.0,0.41537604,0.0066620666,0.06266978,0.010348864,0.0012499903,3.4510333e-05,-0.010784673,1.8368825,0.15039465,0.010651535,1.6422235,-0.009077282,488.10086,6.455768,0.49803284,0.46701437,0.17811301,0.13303275,inf,inf,inf,inf,1,1,1,1,2,0,2,1,3,1,1,1,0,0
89180000,89180000,908000,47.3977508,8.5456073,-26.04114,-2.3491504,-6.330378,3.7317615e-05,0.007414011,0.0,1.2076288,0.075060286,0.051994655,-0.0018893218,0.0012499903,3.4510333e-05,-0.010784673,1.3588021,0.1746943,0.00018347053,1.6417048,-0.009077282,488.10086,6.4562597,0.46600488,0.4577336,0.16776249,0.12858373,inf,inf,inf,inf,1,1,1,1,2,0,2,1,3,1,1,1,0,0
89676000,89676000,908000,47.3977508,8.5456073,-25.366531,-2.306481,-6.328501,3.7317615e-05,0.007414011,0.0,1.6698847,0.12588386,0.04321901,-0.0054024234,0.0012499903,3.4510333e-05,-0.010784673,0.54203546,0.08665096,-0.025124287,1.6414597,-0.009077282,488.10086,6.454383,0.47607988,0.46115148,0.17299896,0.13003618,inf,inf,inf,inf,1,1,1,1,2,0,2,1,3,1,1,1,0,0
90180000,90180000,908000,47.3977508,8.5456073,-24.53573,-2.2407866,-6.326431,3.7317615e-05,0.007414011,0.0,1.708174,0.14450851,0.03140589,-0.009955278,0.0012499903,3.4510333e-05,-0.010784673,-0.33943716,-0.036562443,0.023891216,1.6415683,-0.009077282,488.10086,6.4523125,0.48774722,0.4653755,0.17615403,0.13175209,inf,inf,inf,inf,1,1,1,1,2,0,2,1,3,1,1,1,0,0
90676000,90676000,908000,47.3977508,8.5456073,-23.791744,-2.1757555,-6.322619,3.7317615e-05,0.007414011,0.0,1.311296,0.122101694,0.043268315,0.00806588,0.0012499903,3.4510333e-05,-0.010784673,-1.1923357,-0.06520605,0.0028777865,1.6416174,-0.009077282,488.10086,6.4485006,0.49880174,0.4647811,0.17733034,0.13269551,inf,inf,inf,inf,1,1,1,1,2,0,2,1,3,1,1,1,0,0
91180000,91180000,908000,47.3977508,8.5456073,-23.310417,-2.128421,-6.313307,3.7317615e-05,0.007414011,0.0,0.56750786,0.06650748,0.04718459,0.014780853,0.0012499903,3.4510333e-05,-0.010784673,-1.7077228,-0.15073991,0.010312534,1.6423973,-0.009077282,488.10086,6.4391885,0.46649492,0.4594674,0.16236639,0.12887844,inf,inf,inf,inf,1,1,1,1,2,0,2,1,3,1,1,1,0,0
91676000,91676000,908000,47.3977508,8.5456073,-23.246744,-2.110934,-6.30579,3.7317615e-05,0.007414011,0.0,-0.32576743,-0.007848901,0.03448549,0.004745819,0.0012499903,3.4510333e-05,-0.010784673,-1.7862434,-0.149995,0.011320225,1.6427943,-0.009077282,488.10086,6.4316716,0.4763323,0.45891804,0.16669363,0.12977287,inf,inf,inf,inf,1,1,1,1,2,0,2,1,3,1,1,1,0,0
92180000,92180000,908000,47.3977508,8.5456073,-23.632092,-2.117765,-6.299245,3.7317615e-05,0.007414011,0.0,-1.1695374,-0.07935509,0.030787483,0.0055717127,0.0012499903,3.4510333e-05,-0.010784673,-1.4912069,-0.14966029,-0.013487413,1.6431113,-0.009077282,488.10086,6.4251266,0.44936493,0.45430344,0.15776195,0.12625363,inf,inf,inf,inf,1,1,1,1,2,0,2,1,3,1,1,1,0,0
92676000,92676000,908000,47.3977508,8.5456073,-24.372341,-2.1555698,-6.2824745,3.7317615e-05,0.007414011,0.0,-1.7340114,-0.13495077,0.0035114088,-0.0058340356,0.0012499903,3.4510333e-05,-0.010784673,-0.8097738,-0.059837088,-0.07597915,1.6435517,-0.009077282,488.10086,6.408356,0.46063766,0.4580726,0.16462003,0.12814125,inf,inf,inf,inf,1,1,1,1,2,0,2,1,3,1,1,1,0,0
93180000,93180000,908000,47.3977508,8.5456073,-25.328434,-2.2211528,-6.2814045,3.7317615e-05,0.007414011,0.0,-1.8982896,-0.16510184,-0.0139748,-0.017341206,0.0012499903,3.4510333e-05,-0.010784673,0.13210449,0.013508528,0.0023329628,1.643353,-0.009077282,488.10086,6.407286,0.47342756,0.45881924,0.16987583,0.12975194,inf,inf,inf,inf,1,1,1,1,2,0,2,1,3,1,1,1,0,0
93676000,93676000,908000,47.3977508,8.5456073,-26.249718,-2.290803,-6.286275,3.7317615e-05,0.007414011,0.0,-1.6213137,-0.15635246,-0.0039249635,-0.0065902527,0.0012499903,3.4510333e-05,-0.010784673,1.0002835,0.022212014,0.045613382,1.6431807,-0.009077282,488.10086,6.4121566,0.48610887,0.4629957,0.17331195,0.1317413,inf,inf,inf,inf,1,1,1,1,2,0,2,1,3,1,1,1,0,0
94180000,94180000,908000,47.3977508,8.5456073,-26.951376,-2.3445518,-6.2763615,3.7317615e-05,0.007414011,0.0,-0.9592985,-0.11284365,0.016074823,0.01900945,0.0012499903,3.4510333e-05,-0.010784673,1.6236676,0.11158996,-0.030643305,1.6427414,-0.009077282,488.10086,6.402243,0.4580244,0.45481905,0.16085447,0.12792274,inf,inf,inf,inf,1,1,1,1,2,0,2,1,3,1,1,1,0,0
94684000,94684000,908000,47.3977508,8.5456073,-27.25626,-2.3747132,-6.2585654,3.7317615e-05,0.007414011,0.0,-0.078043826,-0.047235746,-0.0047357,0.0076056533,0.0012499903,3.4510333e-05,-0.010784673,1.8686508,0.13795543,-0.048010606,1.6426231,-0.009077282,488.10086,6.384447,0.46989718,0.45584798,0.16684031,0.12934372,inf,inf,inf,inf,1,1,1,1,2,0,2,1,3,1,1,1,0,0
95180000,95180000,908000,47.3977508,8.5456073,-27.098589,-2.3718145,-6.258613,3.7317615e-05,0.007414011,0.0,0.7899728,0.02321908,-0.015474164,-0.0048156003,0.0012499903,3.4510333e-05,-0.010784673,1.6098773,0.09757588,-0.01666881,1.6420023,-0.009077282,488.10086,6.384495,0.48138413,0.46005204,0.17403357,0.13098547,inf,inf,inf,inf,1,1,1,1,2,0,2,1,3,1,1,1,0,0
95676000,95676000,908000,47.3977508,8.5456073,-26.54167,-2.3313563,-6.2666144,3.7317615e-05,0.007414011,0.0,1.4415225,0.08563875,-0.016806928,-0.011686481,0.0012499903,3.4510333e-05,-0.010784673,1.014693,0.0919269,-0.036622394,1.6417457,-0.009077282,488.10086,6.392496,0.4935185,0.46031353,0.18075208,0.13205515,inf,inf,inf,inf,1,1,1,1,2,0,2,1,3,1,1,1,0,0
96180000,96180000,908000,47.3977508,8.5456073,-25.71127,-2.2663116,-6.265949,3.7317615e-05,0.007414011,0.0,1.726435,0.119818784,-0.027569193,-0.016977187,0.0012499903,3.4510333e-05,-0.010784673,0.106247544,0.044065773,-0.028438864,1.6416965,-0.009077282,488.10086,6.3918304,0.46283686,0.45592207,0.16698574,0.12848403,inf,inf,inf,inf,1,1,1,1,2,0,2,1,3,1,1,1,0,0
96676000,96676000,908000,47.3977508,8.5456073,-24.842888,-2.198557,-6.279867,3.7317615e-05,0.007414011,0.0,1.5656666,0.11711385,-0.019218417,-0.014978735,0.0012499903,3.4510333e-05,-0.010784673,-0.8419785,-0.09634305,0.06572063,1.6414878,-0.009077282,488.10086,6.405749,0.4734887,0.45609015,0.16903049,0.12964733,inf,inf,inf,inf,1,1,1,1,2,0,2,1,3,1,1,1,0,0
97180000,97180000,908000,47.3977508,8.5456073,-24.138788,-2.141114,-6.2747955,3.7317615e-05,0.007414011,0.0,0.98754364,0.07997536,0.0057294066,0.014450669,0.0012499903,3.4510333e-05,-0.010784673,-1.523352,-0.112075776,-0.0069746743,1.641689,-0.009077282,488.10086,6.400677,0.4852878,0.46095383,0.17097813,0.13149707,inf,inf,inf,inf,1,1,1,1,2,0,2,1,3,1,1,1,0,0
97676000,97676000,908000,47.3977508,8.5456073,-23.794083,-2.111699,-6.2682705,3.7317615e-05,0.007414011,0.0,0.14823872,0.016991286,-0.00011372509,0.00828879,0.0012499903,3.4510333e-05,-0.010784673,-1.8647879,-0.12500054,-0.022919847,1.6427728,-0.009077282,488.10086,6.394152,0.49637836,0.4650651,0.17436093,0.13304226,inf,inf,inf,inf,1,1,1,1,2,0,2,1,3,1,1,1,0,0
98180000,98180000,908000,47.3977508,8.5456073,-23.861055,-2.107381,-6.2573485,3.7317615e-05,0.007414011,0.0,-0.75807464,-0.052308433,-0.010880484,0.0048096334,0.0012499903,3.4510333e-05,-0.010784673,-1.7657434,-0.18674333,0.0028554348,1.6430882,-0.009077282,488.10086,6.38323,0.46745136,0.45657924,0.16522214,0.12903582,inf,inf,inf,inf,1,1,1,1,2,0,2,1,3,1,1,1,0,0
98676000,98676000,908000,47.3977508,8.5456073,-24.381437,-2.1459432,-6.24746,3.7317615e-05,0.007414011,0.0,-1.5092322,-0.12143828,-0.025955025,-0.002817789,0.0012499903,3.4510333e-05,-0.010784673,-1.2547942,-0.17542687,-0.08053332,1.6433313,-0.009077282,488.10086,6.3733416,0.4803133,0.46076393,0.17307621,0.13086402,inf,inf,inf,inf,1,1,1,1,2,0,2,1,3,1,1,1,0,0
99180000,99180000,908000,47.3977508,8.5456073,-25.217474,-2.2132044,-6.250403,3.7317615e-05,0.007414011,0.0,-1.9208802,-0.16369829,-0.03784828,-0.013790734,0.0012499903,3.4510333e-05,-0.010784673,-0.4266147,-0.07006155,-0.038924623,1.6431522,-0.009077282,488.10086,6.3762846,0.45409182,0.45277596,0.16280895,0.12709601,inf,inf,inf,inf,1,1,1,1,2,0,2,1,3,1,1,1,0,0
99676000,99676000,908000,47.3977508,8.5456073,-26.141335,-2.2932467,-6.2571883,3.7317615e-05,0.007414011,0.0,-1.8880787,-0.17228362,-0.04121228,-0.017068103,0.0012499903,3.4510333e-05,-0.010784673,0.4845653,0.030492766,-0.011595896,1.6433178,-0.009077282,488.10086,6.38307,0.4655082,0.45688513,0.1664098,0.1289541,inf,inf,inf,inf,1,1,1,1,2,0,2,1,3,1,1,1,0,0
100180000,100180000,908000,47.3977508,8.5456073,-26.972658,-2.3776155,-6.2717247,3.7317615e-05,0.007414011,0.0,-1.4246432,-0.15167013,-0.014768263,0.00013488432,0.0012499903,3.4510333e-05,-0.010784673,1.282045,0.10869923,0.11079385,1.6429632,-0.009077282,488.10086,6.3976064,0.4782192,0.45792952,0.16953394,0.13043891,inf,inf,inf,inf,1,1,1,1,2,0,2,1,3,1,1,1,0,0
100676000,100676000,908000,47.3977508,8.5456073,-27.488237,-2.4312747,-6.268661,3.7317615e-05,0.007414011,0.0,-0.65033007,-0.09120003,0.00393697,0.016162595,0.0012499903,3.4510333e-05,-0.010784673,1.7667794,0.15405127,0.013469717,1.6423081,-0.009077282,488.10086,6.3945427,0.49039176,0.46223247,0.17360169,0.13217269,inf,inf,inf,inf,1,1,1,1,2,0,2,1,3,1,1,1,0,0
101180000,101180000,908000,47.3977508,8.5456073,-27.573637,-2.4485652,-6.263514,3.7317615e-05,0.007414011,0.0,0.2714115,-0.017303936,-0.008826686,0.0028468296,0.0012499903,3.4510333e-05,-0.010784673,1.7778265,0.15157726,-0.0026319174,1.642088,-0.009077282,488.10086,6.3893957,0.4607325,0.4538689,0.16318765,0.12800965,inf,inf,inf,inf,1,1,1,1,2,0,2,1,3,1,1,1,0,0
101676000,101676000,908000,47.3977508,8.5456073,-27.21852,-2.4230847,-6.2707734,3.7317615e-05,0.007414011,0.0,1.0775894,0.05541986,-0.005292621,-0.001402666,0.0012499903,3.4510333e-05,-0.010784673,1.3979725,0.0830446,0.021222977,1.6418242,-0.009077282,488.10086,6.396655,0.47449046,0.45820096,0.17218924,0.12999491,inf,inf,inf,inf,1,1,1,1,2,0,2,1,3,1,1,1,0,0
102180000,102180000,908000,47.3977508,8.5456073,-26.51502,-2.370142,-6.274094,3.7317615e-05,0.007414011,0.0,1.5933108,0.10182879,-0.010903269,-0.0074530467,0.0012499903,3.4510333e-05,-0.010784673,0.59302163,0.051335488,-0.010631978,1.6418041,-0.009077282,488.10086,6.399976,0.44993773,0.45058447,0.16305582,0.12644404,inf,inf,inf,inf,1,1,1,1,2,0,2,1,3,1,1,1,0,0
102676000,102676000,908000,47.3977508,8.5456073,-25.653805,-2.295887,-6.2718773,3.7317615e-05,0.007414011,0.0,1.6857661,0.12067396,-0.020662682,-0.0098759085,0.0012499903,3.4510333e-05,-0.010784673,-0.29844606,-0.022548279,-0.061803494,1.6414417,-0.009077282,488.10086,6.397759,0.46197593,0.45478514,0.1672566,0.12842809,inf,inf,inf,inf,1,1,1,1,2,0,2,1,3,1,1,1,0,0
103180000,103180000,908000,47.3977508,8.5456073,-24.823494,-2.2159545,-6.2691555,3.7317615e-05,0.007414011,0.0,1.3368082,0.10314733,-0.0155443,0.0012088505,0.0012499903,3.4510333e-05,-0.010784673,-1.133683,-0.10823123,-0.012666917,1.6419371,-0.009077282,488.10086,6.395037,0.47525498,0.459856,0.17012838,0.13058767,inf,inf,inf,inf,1,1,1,1,2,0,2,1,3,1,1,1,0,0
103676000,103676000,908000,47.3977508,8.5456073,-24.271885,-2.1501594,-6.2624803,3.7317615e-05,0.007414011,0.0,0.6266952,0.048561744,-0.0050213677,0.0132072205,0.0012499903,3.4510333e-05,-0.010784673,-1.728007,-0.13468498,0.016609205,1.6427004,-0.009077282,488.10086,6.388362,0.48783726,0.46030343,0.17293428,0.13189615,inf,inf,inf,inf,1,1,1,1,2,0,2,1,3,1,1,1,0,0
104180000,104180000,908000,47.3977508,8.5456073,-24.109543,-2.1135588,-6.261555,3.7317615e-05,0.007414011,0.0,-0.27734184,-0.029296217,-0.00781964,0.00613922,0.0012499903,3.4510333e-05,-0.010784673,-1.9428905,-0.22491221,-0.003797002,1.6426289,-0.009077282,488.10086,6.387437,0.4588552,0.45603383,0.1611632,0.12834637,inf,inf,inf,inf,1,1,1,1,2,0,2,1,3,1,1,1,0,0
104676000,104676000,908000,47.3977508,8.5456073,-24.395254,-2.118752,-6.2561364,3.7317615e-05,0.007414011,0.0,-1.1373372,-0.1048238,-0.011669011,0.0044392236,0.0012499903,3.4510333e-05,-0.010784673,-1.6460671,-0.17636728,-0.055486333,1.6428359,-0.009077282,488.10086,6.382018,0.46965903,0.45629784,0.1669786,0.12942025,inf,inf,inf,inf,1,1,1,1,2,0,2,1,3,1,1,1,0,0
105180000,105180000,908000,47.3977508,8.5456073,-25.075804,-2.164634,-6.2606263,3.7317615e-05,0.007414011,0.0,-1.760807,-0.16921064,-0.019444952,-0.0067289965,0.0012499903,3.4510333e-05,-0.010784673,-0.8970533,-0.10867842,0.026934778,1.642935,-0.009077282,488.10086,6.386508,0.4816402,0.45737404,0.17296681,0.13066234,inf,inf,inf,inf,1,1,1,1,2,0,2,1,3,1,1,1,0,0
105684000,105684000,908000,47.3977508,8.5456073,-25.99203,-2.2381527,-6.2681556,3.7317615e-05,0.007414011,0.0,-1.9817502,-0.19869442,-0.026489573,-0.014993858,0.0012499903,3.4510333e-05,-0.010784673,-0.028294394,-0.032420885,0.04004966,1.6430383,-0.009077282,488.10086,6.3940372,0.49426064,0.4625829,0.1773994,0.13253382,inf,inf,inf,inf,1,1,1,1,2,0,2,1,3,1,1,1,0,0
106180000,106180000,908000,47.3977508,8.5456073,-26.910908,-2.3107333,-6.2730803,3.7317615e-05,0.007414011,0.0,-1.7589096,-0.19345808,-0.024443423,-0.011764936,0.0012499903,3.4510333e-05,-0.010784673,0.85464513,0.011979048,0.05209166,1.6428922,-0.009077282,488.10086,6.398962,0.46245813,0.45366004,0.16256247,0.12822199,inf,inf,inf,inf,1,1,1,1,2,0,2,1,3,1,1,1,0,0
106676000,106676000,908000,47.3977508,8.5456073,-27.635962,-2.3708305,-6.2812347,3.7317615e-05,0.007414011,0.0,-1.148061,-0.1517656,0.0050709685,0.0099601345,0.0012499903,3.4510333e-05,-0.010784673,1.5123609,0.09809566,0.054933127,1.6427785,-0.009077282,488.10086,6.4071164,0.472773,0.45776594,0.16540769,0.12982988,inf,inf,inf,inf,1,1,1,1,2,0,2,1,3,1,1,1,0,0
107180000,107180000,908000,47.3977508,8.5456073,-28.002495,-2.405367,-6.281549,3.7317615e-05,0.007414011,0.0,-0.27979094,-0.08662801,0.012500247,0.0109801935,0.0012499903,3.4510333e-05,-0.010784673,1.8323014,0.11362434,0.0076312567,1.6425345,-0.009077282,488.10086,6.4074306,0.48430955,0.4586458,0.17054783,0.13097687,inf,inf,inf,inf,1,1,1,1,2,0,2,1,3,1,1,1,0,0
107676000,107676000,908000,47.3977508,8.5456073,-27.917343,-2.4081275,-6.2802935,3.7317615e-05,0.007414011,0.0,0.61012137,-0.014366737,0.00940509,0.0061003906,0.0012499903,3.4510333e-05,-0.010784673,1.6741538,0.09543599,-0.009184702,1.6420851,-0.009077282,488.10086,6.406175,0.49542642,0.46271896,0.1772885,0.13241264,inf,inf,inf,inf,1,1,1,1,2,0,2,1,3,1,1,1,0,0
108180000,108180000,908000,47.3977508,8.5456073,-27.416294,-2.377371,-6.276255,3.7317615e-05,0.007414011,0.0,1.3220272,0.050553173,-0.0006781293,-0.00092624757,0.0012499903,3.4510333e-05,-0.010784673,1.0478983,0.06612783,-0.032645646,1.6418153,-0.009077282,488.10086,6.402137,0.46385244,0.45788756,0.16619717,0.12855563,inf,inf,inf,inf,1,1,1,1,2,0,2,1,3,1,1,1,0,0
108676000,108676000,908000,47.3977508,8.5456073,-26.637566,-2.3196142,-6.2769322,3.7317615e-05,0.007414011,0.0,1.6676204,0.092316,-0.01481304,-0.012309868,0.0012499903,3.4510333e-05,-0.010784673,0.20977761,0.049515333,0.008745118,1.6415747,-0.009077282,488.10086,6.402814,0.4739877,0.45769462,0.1706837,0.12951185,inf,inf,inf,inf,1,1,1,1,2,0,2,1,3,1,1,1,0,0
109180000,109180000,908000,47.3977508,8.5456073,-25.77262,-2.251028,-6.279926,3.7317615e-05,0.007414011,0.0,1.5668125,0.09459755,-0.015145207,-0.009447741,0.0012499903,3.4510333e-05,-0.010784673,-0.70792764,-0.03313385,0.01430232,1.6416162,-0.009077282,488.10086,6.4058075,0.4854903,0.46225706,0.17346506,0.13126864,inf,inf,inf,inf,1,1,1,1,2,0,2,1,3,1,1,1,0,0
109676000,109676000,908000,47.3977508,8.5456073,-25.067183,-2.1897564,-6.278426,3.7317615e-05,0.007414011,0.0,1.0480688,0.060250845,0.003092775,0.010075528,0.0012499903,3.4510333e-05,-0.010784673,-1.4223193,-0.15290247,0.053771768,1.6419396,-0.009077282,488.10086,6.404308,0.49659827,0.4621418,0.17525023,0.13229162,inf,inf,inf,inf,1,1,1,1,2,0,2,1,3,1,1,1,0,0
110180000,110180000,908000,47.3977508,8.5456073,-24.677202,-2.1519103,-6.2728586,3.7317615e-05,0.007414011,0.0,0.2275596,-0.000624062,0.0061990293,0.01223463,0.0012499903,3.4510333e-05,-0.010784673,-1.8588352,-0.12844758,-0.028932465,1.6421742,-0.009077282,488.10086,6.3987403,0.4646559,0.45725095,0.16138063,0.12851351,inf,inf,inf,inf,1,1,1,1,2,0,2,1,3,1,1,1,0,0
110676000,110676000,908000,47.3977508,8.5456073,-24.721838,-2.1464493,-6.268097,3.7317615e-05,0.007414011,0.0,-0.67619646,-0.070077986,0.004828908,0.010904934,0.0012499903,3.4510333e-05,-0.010784673,-1.8609596,-0.16584155,-0.006468035,1.6427785,-0.009077282,488.10086,6.3939786,0.4744486,0.4610473,0.16622506,0.12998328,inf,inf,inf,inf,1,1,1,1,2,0,2,1,3,1,1,1,0,0
111180000,111180000,908000,47.3977508,8.5456073,-25.21994,-2.1780174,-6.2611217,3.7317615e-05,0.007414011,0.0,-1.4742031,-0.13684084,-0.005382733,0.0036149665,0.0012499903,3.4510333e-05,-0.010784673,-1.4163456,-0.13164245,-0.038566064,1.642847,-0.009077282,488.10086,6.3870034,0.48545367,0.4615206,0.17235036,0.13104497,inf,inf,inf,inf,1,1,1,1,2,0,2,1,3,1,1,1,0,0
111676000,111676000,908000,47.3977508,8.5456073,-26.043411,-2.2367642,-6.263997,3.7317615e-05,0.007414011,0.0,-1.9361717,-0.1802992,-0.020497462,-0.012342785,0.0012499903,3.4510333e-05,-0.010784673,-0.55305403,-0.08303498,0.00014249234,1.6431113,-0.009077282,488.10086,6.3898787,0.49613243,0.46146163,0.17729715,0.13200894,inf,inf,inf,inf,1,1,1,1,2,0,2,1,3,1,1,1,0,0
112180000,112180000,908000,47.3977508,8.5456073,-27.02556,-2.319008,-6.280243,3.7317615e-05,0.007414011,0.0,-1.9721414,-0.19289657,-0.017107261,-0.0176606,0.0012499903,3.4510333e-05,-0.010784673,0.3825039,-0.059411827,0.0100918105,1.6429783,-0.009077282,488.10086,6.4061246,0.4643644,0.45678028,0.16330795,0.12837005,inf,inf,inf,inf,1,1,1,1,2,0,2,1,3,1,1,1,0,0
112676000,112676000,908000,47.3977508,8.5456073,-27.918312,-2.402182,-6.3045254,3.7317615e-05,0.007414011,0.0,-1.5756466,-0.17103219,0.008721329,-0.008239874,0.0012499903,3.4510333e-05,-0.010784673,1.2199657,0.08152389,0.09595509,1.6427914,-0.009077282,488.10086,6.430407,0.47418323,0.45685974,0.16588716,0.12950365,inf,inf,inf,inf,1,1,1,1,2,0,2,1,3,1,1,1,0,0
113180000,113180000,908000,47.3977508,8.5456073,-28.545454,-2.4748576,-6.324632,3.7317615e-05,0.007414011,0.0,-0.83122647,-0.11942947,0.049307898,0.011775713,0.0012499903,3.4510333e-05,-0.010784673,1.7215489,0.12927961,0.11306535,1.6424326,-0.009077282,488.10086,6.450514,0.48519683,0.4615763,0.16975369,0.1312589,inf,inf,inf,inf,1,1,1,1,2,0,2,1,3,1,1,1,0,0
113684000,113684000,908000,47.3977508,8.5456073,-28.761335,-2.5142903,-6.331081,3.7317615e-05,0.007414011,0.0,0.07202979,-0.045553874,0.061638474,0.013396682,0.0012499903,3.4510333e-05,-0.010784673,1.8085085,0.16878925,0.052481886,1.641951,-0.009077282,488.10086,6.4569626,0.4967485,0.46220472,0.17586505,0.13232484,inf,inf,inf,inf,1,1,1,1,2,0,2,1,3,1,1,1,0,0
114180000,114180000,908000,47.3977508,8.5456073,-28.53184,-2.5148113,-6.3306813,3.7317615e-05,0.007414011,0.0,0.89640725,0.028907869,0.058735155,0.00848035,0.0012499903,3.4510333e-05,-0.010784673,1.4606206,0.13943252,-0.014030374,1.6413797,-0.009077282,488.10086,6.456563,0.4640709,0.45672813,0.16499893,0.12831984,inf,inf,inf,inf,1,1,1,1,2,0,2,1,3,1,1,1,0,0
114676000,114676000,908000,47.3977508,8.5456073,-27.936234,-2.482492,-6.3286757,3.7317615e-05,0.007414011,0.0,1.4545594,0.0874619,0.04410349,-0.0033165794,0.0012499903,3.4510333e-05,-0.010784673,0.7571823,0.059035864,0.015692784,1.6409655,-0.009077282,488.10086,6.4545574,0.47388965,0.46056506,0.17055269,0.12981017,inf,inf,inf,inf,1,1,1,1,2,0,2,1,3,1,1,1,0,0
115180000,115180000,908000,47.3977508,8.5456073,-27.12958,-2.4322925,-6.3255343,3.7317615e-05,0.007414011,0.0,1.6094466,0.11386395,0.032732464,-0.0069446187,0.0012499903,3.4510333e-05,-0.010784673,-0.15529872,0.039735008,-0.03265403,1.6409249,-0.009077282,488.10086,6.451416,0.48528826,0.4611611,0.17454094,0.1310077,inf,inf,inf,inf,1,1,1,1,2,0,2,1,3,1,1,1,0,0
115676000,115676000,908000,47.3977508,8.5456073,-26.349398,-2.3703763,-6.327586,3.7317615e-05,0.007414011,0.0,1.3255125,0.10735985,0.040098876,0.0025044172,0.0012499903,3.4510333e-05,-0.010784673,-1.0386453,-0.019791927,0.06089173,1.641393,-0.009077282,488.10086,6.453468,0.4961432,0.46503848,0.17643951,0.13258986,inf,inf,inf,inf,1,1,1,1,2,0,2,1,3,1,1,1,0,0
116180000,116180000,908000,47.3977508,8.5456073,-25.778582,-2.3162398,-6.3175826,3.7317615e-05,0.007414011,0.0,0.6634617,0.062754735,0.050262313,0.017384006,0.0012499903,3.4510333e-05,-0.010784673,-1.688786,-0.10672161,-0.007265247,1.6421831,-0.009077282,488.10086,6.4434643,0.4641602,0.45614004,0.16151752,0.1282927,inf,inf,inf,inf,1,1,1,1,2,0,2,1,3,1,1,1,0,0
116676000,116676000,908000,47.3977508,8.5456073,-25.597214,-2.291185,-6.3075633,3.7317615e-05,0.007414011,0.0,-0.20712179,-0.003324617,0.038742702,0.008541736,0.0012499903,3.4510333e-05,-0.010784673,-1.8776896,-0.18986729,-0.015689058,1.642647,-0.009077282,488.10086,6.433445,0.47389737,0.45993915,0.16527364,0.12980476,inf,inf,inf,inf,1,1,1,1,2,0,2,1,3,1,1,1,0,0
117180000,117180000,908000,47.3977508,8.5456073,-25.878767,-2.3023722,-6.300799,3.7317615e-05,0.007414011,0.0,-1.0987796,-0.07511567,0.03298614,0.0064333985,0.0012499903,3.4510333e-05,-0.010784673,-1.6527272,-0.11224283,-0.011071562,1.6429968,-0.009077282,488.10086,6.4266806,0.48493788,0.46072736,0.17106575,0.1309637,inf,inf,inf,inf,1,1,1,1,2,0,2,1,3,1,1,1,0,0
117676000,117676000,908000,47.3977508,8.5456073,-26.559465,-2.350387,-6.2968545,3.7317615e-05,0.007414011,0.0,-1.7620372,-0.13192129,0.019407174,-0.0035456312,0.0012499903,3.4510333e-05,-0.010784673,-1.0340693,-0.081078604,-0.028539447,1.643472,-0.009077282,488.10086,6.422736,0.49560395,0.46473366,0.17669092,0.1324749,inf,inf,inf,inf,1,1,1,1,2,0,2,1,3,1,1,1,0,0
118180000,118180000,908000,47.3977508,8.5456073,-27.498234,-2.421029,-6.2965374,3.7317615e-05,0.007414011,0.0,-2.0475771,-0.16303699,0.004207703,-0.014066973,0.0012499903,3.4510333e-05,-0.010784673,-0.17794348,0.00084917695,0.02390146,1.6430742,-0.009077282,488.10086,6.422419,0.46384194,0.45601657,0.16363983,0.12821364,inf,inf,inf,inf,1,1,1,1,2,0,2,1,3,1,1,1,0,0
118684000,118684000,908000,47.3977508,8.5456073,-28.489685,-2.4980168,-6.302673,3.7317615e-05,0.007414011,0.0,-1.8802285,-0.15693752,0.0051221456,-0.012296091,0.0012499903,3.4510333e-05,-0.010784673,0.7801866,0.079813644,0.04539359,1.6430143,-0.009077282,488.10086,6.4285545,0.47439545,0.46064726,0.1668067,0.13003662,inf,inf,inf,inf,1,1,1,1,2,0,2,1,3,1,1,1,0,0
119180000,119180000,908000,47.3977508,8.5456073,-29.306787,-2.5707855,-6.3067827,3.7317615e-05,0.007414011,0.0,-1.3153336,-0.12406178,0.030128397,0.008782976,0.0012499903,3.4510333e-05,-0.010784673,1.4506694,0.104693614,0.059007663,1.642669,-0.009077282,488.10086,6.4326644,0.48463684,0.4605989,0.1697152,0.13109232,inf,inf,inf,inf,1,1,1,1,2,0,2,1,3,1,1,1,0,0
119676000,119676000,908000,47.3977508,8.5456073,-29.781559,-2.6224723,-6.297803,3.7317615e-05,0.007414011,0.0,-0.48120987,-0.0666204,0.036326606,0.01670182,0.0012499903,3.4510333e-05,-0.010784673,1.8569835,0.12258803,-0.014801509,1.642276,-0.009077282,488.10086,6.4236846,0.49549225,0.46462354,0.17450412,0.1326406,inf,inf,inf,inf,1,1,1,1,2,0,2,1,3,1,1,1,0,0
120180000,120180000,908000,47.3977508,8.5456073,-29.821733,-2.641196,-6.2824335,3.7317615e-05,0.007414011,0.0,0.4331834,0.004761647,0.013166857,0.0035333887,0.0012499903,3.4510333e-05,-0.010784673,1.743314,0.14312737,-0.080925405,1.6418071,-0.009077282,488.10086,6.408315,0.46383438,0.4558905,0.1639889,0.12827244,inf,inf,inf,inf,1,1,1,1,2,0,2,1,3,1,1,1,0,0
120676000,120676000,908000,47.3977508,8.5456073,-29.445925,-2.6261714,-6.278371,3.7317615e-05,0.007414011,0.0,1.1716095,0.06666954,-0.0006423273,-0.0061415406,0.0012499903,3.4510333e-05,-0.010784673,1.2313082,0.108529575,-0.02959743,1.6413363,-0.009077282,488.10086,6.4042525,0.4736743,0.4597045,0.17027923,0.12972973,inf,inf,inf,inf,1,1,1,1,2,0,2,1,3,1,1,1,0,0
121180000,121180000,908000,47.3977508,8.5456073,-28.746809,-2.584714,-6.2812953,3.7317615e-05,0.007414011,0.0,1.5783104,0.11040492,-0.011006709,-0.014364973,0.0012499903,3.4510333e-05,-0.010784673,0.3948769,0.0581117,-0.035057772,1.6410184,-0.009077282,488.10086,6.407177,0.44702458,0.45148987,0.1595692,0.12575111,inf,inf,inf,inf,1,1,1,1,2,0,2,1,3,1,1,1,0,0
121684000,121684000,908000,47.3977508,8.5456073,-27.93291,-2.521722,-6.279464,3.7317615e-05,0.007414011,0.0,1.5442562,0.12519524,-0.014960726,-0.010037243,0.0012499903,3.4510333e-05,-0.010784673,-0.54582757,-0.018641861,-0.011848285,1.6413926,-0.009077282,488.10086,6.4053454,0.45942932,0.4561987,0.16427243,0.12791601,inf,inf,inf,inf,1,1,1,1,2,0,2,1,3,1,1,1,0,0
122180000,122180000,908000,47.3977508,8.5456073,-27.243027,-2.4644296,-6.2680387,3.7317615e-05,0.007414011,0.0,1.0833961,0.09763565,-0.0055324463,0.01006245,0.0012499903,3.4510333e-05,-0.010784673,-1.3223422,-0.11354575,-0.039758157,1.6418337,-0.009077282,488.10086,6.3939204,0.4716195,0.4564795,0.16745168,0.12937082,inf,inf,inf,inf,1,1,1,1,2,0,2,1,3,1,1,1,0,0
122676000,122676000,908000,47.3977508,8.5456073,-26.852785,-2.4297519,-6.255885,3.7317615e-05,0.007414011,0.0,0.30904305,0.03846428,-0.010043519,0.010216434,0.0012499903,3.4510333e-05,-0.010784673,-1.7928671,-0.11063971,-0.00019557773,1.6419526,-0.009077282,488.10086,6.381767,0.4841143,0.46067286,0.17126893,0.13123767,inf,inf,inf,inf,1,1,1,1,2,0,2,1,3,1,1,1,0,0
123180000,123180000,908000,47.3977508,8.5456073,-26.88898,-2.420576,-6.2454076,3.7317615e-05,0.007414011,0.0,-0.6088619,-0.030030856,-0.022010058,0.0039704014,0.0012499903,3.4510333e-05,-0.010784673,-1.835208,-0.13130689,-0.013720243,1.6426027,-0.009077282,488.10086,6.3712893,0.45624062,0.45258424,0.16052572,0.12730652,inf,inf,inf,inf,1,1,1,1,2,0,2,1,3,1,1,1,0,0
123676000,123676000,908000,47.3977508,8.5456073,-27.363716,-2.4438944,-6.2319307,3.7317615e-05,0.007414011,0.0,-1.4174843,-0.0978126,-0.031142624,0.005281011,0.0012499903,3.4510333e-05,-0.010784673,-1.4253328,-0.14172193,-0.064962536,1.6434195,-0.009077282,488.10086,6.3578124,0.46709195,0.4565557,0.16635503,0.1289758,inf,inf,inf,inf,1,1,1,1,2,0,2,1,3,1,1,1,0,0
124180000,124180000,908000,47.3977508,8.5456073,-28.201838,-2.50607,-6.234473,3.7317615e-05,0.007414011,0.0,-1.9435133,-0.14731273,-0.05164095,-0.016030543,0.0012499903,3.4510333e-05,-0.010784673,-0.6619291,-0.08367452,0.02072472,1.6432798,-0.009077282,488.10086,6.360355,0.4791765,0.45748302,0.17192799,0.13032606,inf,inf,inf,inf,1,1,1,1,2,0,2,1,3,1,1,1,0,0
124676000,124676000,908000,47.3977508,8.5456073,-29.20195,-2.5794277,-6.2433186,3.7317615e-05,0.007414011,0.0,-2.0444963,-0.1581547,-0.053560767,-0.019695371,0.0012499903,3.4510333e-05,-0.010784673,0.26549426,0.0067732614,0.0061923633,1.6434069,-0.009077282,488.10086,6.3692,0.49089742,0.46181384,0.17567933,0.13209885,inf,inf,inf,inf,1,1,1,1,2,0,2,1,3,1,1,1,0,0
125180000,125180000,908000,47.3977508,8.5456073,-30.167528,-2.6529787,-6.2533565,3.7317615e-05,0.007414011,0.0,-1.6984692,-0.13708152,-0.03938596,-0.009421314,0.0012499903,3.4510333e-05,-0.010784673,1.1291324,0.105129726,0.05035195,1.643134,-0.009077282,488.10086,6.379238,0.46327865,0.4538504,0.16346407,0.12844944,inf,inf,inf,inf,1,1,1,1,2,0,2,1,3,1,1,1,0,0
125684000,125684000,908000,47.3977508,8.5456073,-30.874346,-2.7190735,-6.250905,3.7317615e-05,0.007414011,0.0,-0.9880002,-0.08786196,-0.015342927,0.013544883,0.0012499903,3.4510333e-05,-0.010784673,1.6571563,0.121576734,0.0050431113,1.6426868,-0.009077282,488.10086,6.3767867,0.44212988,0.45060453,0.15538996,0.12582856,inf,inf,inf,inf,1,1,1,1,2,0,2,1,3,1,1,1,0,0
126180000,126180000,908000,47.3977508,8.5456073,-31.170145,-2.7586873,-6.2491045,3.7317615e-05,0.007414011,0.0,-0.099908024,-0.024031108,-0.018805208,0.0061061326,0.0012499903,3.4510333e-05,-0.010784673,1.8690869,0.14846738,-0.05208235,1.6419673,-0.009077282,488.10086,6.374986,0.45589703,0.45143396,0.16337802,0.12760587,inf,inf,inf,inf,1,1,1,1,2,0,2,1,3,1,1,1,0,0
126676000,126676000,908000,47.3977508,8.5456073,-31.022366,-2.767217,-6.249837,3.7317615e-05,0.007414011,0.0,0.75338995,0.043346774,-0.024174897,-0.0010215191,0.0012499903,3.4510333e-05,-0.010784673,1.5137637,0.18737096,-0.05092937,1.6415188,-0.009077282,488.10086,6.3757186,0.47033668,0.45607385,0.1721983,0.12973632,inf,inf,inf,inf,1,1,1,1,2,0,2,1,3,1,1,1,0,0
127180000,127180000,908000,47.3977508,8.5456073,-30.48453,-2.736994,-6.2467775,3.7317615e-05,0.007414011,0.0,1.3715658,0.102517135,-0.035706095,-0.00833372,0.0012499903,3.4510333e-05,-0.010784673,0.84255403,0.13056414,-0.04446506,1.6411998,-0.009077282,488.10086,6.372659,0.44667497,0.4489562,0.16313314,0.12627645,inf,inf,inf,inf,1,1,1,1,2,0,2,1,3,1,1,1,0,0
127684000,127684000,908000,47.3977508,8.5456073,-29.712284,-2.6876357,-6.2466187,3.7317615e-05,0.007414011,0.0,1.590142,0.1296655,-0.04249617,-0.009755484,0.0012499903,3.4510333e-05,-0.010784673,-0.028314417,-0.014006421,-0.047374513,1.6411589,-0.009077282,488.10086,6.3725004,0.4600355,0.4541081,0.1680492,0.12846778,inf,inf,inf,inf,1,1,1,1,2,0,2,1,3,1,1,1,0,0
128180000,128180000,908000,47.3977508,8.5456073,-28.936699,-2.6240044,-6.2471495,3.7317615e-05,0.007414011,0.0,1.3643978,0.1235815,-0.041223314,-0.00493069,0.0012499903,3.4510333e-05,-0.010784673,-0.8904589,-0.053578313,-0.017454846,1.6415153,-0.009077282,488.10086,6.373031,0.4728805,0.45489597,0.17077172,0.12995246,inf,inf,inf,inf,1,1,1,1,2,0,2,1,3,1,1,1,0,0
128676000,128676000,908000,47.3977508,8.5456073,-28.359478,-2.5664387,-6.2492785,3.7317615e-05,0.007414011,0.0,0.7525643,0.08401832,-0.023127222,0.008900119,0.0012499903,3.4510333e-05,-0.010784673,-1.6220948,-0.1256307,-0.015051103,1.6420915,-0.009077282,488.10086,6.37516,0.48577288,0.459657,0.17309764,0.13187611,inf,inf,inf,inf,1,1,1,1,2,0,2,1,3,1,1,1,0,0
129180000,129180000,908000,47.3977508,8.5456073,-28.141937,-2.5354311,-6.2467947,3.7317615e-05,0.007414011,0.0,-0.11879989,0.017492522,-0.01785583,0.011263215,0.0012499903,3.4510333e-05,-0.010784673,-1.8455023,-0.14267565,0.013592652,1.6424563,-0.009077282,488.10086,6.3726764,0.45704517,0.45186386,0.16028874,0.12783475,inf,inf,inf,inf,1,1,1,1,2,0,2,1,3,1,1,1,0,0
129676000,129676000,908000,47.3977508,8.5456073,-28.373482,-2.5372748,-6.236323,3.7317615e-05,0.007414011,0.0,-1.0118207,-0.058404382,-0.025649862,0.008978341,0.0012499903,3.4510333e-05,-0.010784673,-1.7277503,-0.1475375,-0.037973743,1.6432651,-0.009077282,488.10086,6.3622046,0.46795458,0.45624366,0.16541009,0.12945876,inf,inf,inf,inf,1,1,1,1,2,0,2,1,3,1,1,1,0,0
130180000,130180000,908000,47.3977508,8.5456073,-29.027601,-2.5763888,-6.2335334,3.7317615e-05,0.007414011,0.0,-1.7304239,-0.12561128,-0.03844651,-0.0028876904,0.0012499903,3.4510333e-05,-0.010784673,-1.1353692,-0.11561471,-0.053053718,1.6434635,-0.009077282,488.10086,6.359415,0.4799192,0.4573799,0.17130613,0.13066262,inf,inf,inf,inf,1,1,1,1,2,0,2,1,3,1,1,1,0,0
130676000,130676000,908000,47.3977508,8.5456073,-29.953253,-2.643253,-6.2459564,3.7317615e-05,0.007414011,0.0,-2.0777636,-0.16649744,-0.045271102,-0.01668414,0.0012499903,3.4510333e-05,-0.010784673,-0.30200002,-0.087465525,0.034265216,1.6435876,-0.009077282,488.10086,6.371838,0.49138883,0.46169478,0.17577872,0.13224283,inf,inf,inf,inf,1,1,1,1,2,0,2,1,3,1,1,1,0,0
131180000,131180000,908000,47.3977508,8.5456073,-30.971102,-2.7228112,-6.2549996,3.7317615e-05,0.007414011,0.0,-1.9806883,-0.17292772,-0.04034966,-0.012873755,0.0012499903,3.4510333e-05,-0.010784673,0.62172174,0.036795955,0.009967945,1.6432308,-0.009077282,488.10086,6.3808813,0.46078226,0.4571126,0.16186298,0.12853202,inf,inf,inf,inf,1,1,1,1,2,0,2,1,3,1,1,1,0,0
131680000,131676000,908000,47.3977508,8.5456073,-31.838423,-2.7881343,-6.256046,3.7317615e-05,0.007414011,0.0,-1.4703466,-0.1391079,-0.023215136,0.005438631,0.0012499903,3.4510333e-05,-0.010784673,1.4159356,0.07120198,0.025399027,1.6430753,-0.009077282,488.10086,6.3819275,0.47103053,0.45715758,0.16475536,0.1295722,inf,inf,inf,inf,1,1,1,1,2,0,2,1,3,1,1,1,0,0
132184000,132180000,908000,47.3977508,8.5456073,-32.3984,-2.829602,-6.2616444,3.7317615e-05,0.007414011,0.0,-0.65683866,-0.07867602,-0.007074325,0.010922539,0.0012499903,3.4510333e-05,-0.010784673,1.7735919,0.13117926,0.030467285,1.6427776,-0.009077282,488.10086,6.387526,0.48251778,0.46200502,0.1693042,0.13129443,inf,inf,inf,inf,1,1,1,1,2,0,2,1,3,1,1,1,0,0
132680000,132676000,908000,47.3977508,8.5456073,-32.515205,-2.838337,-6.2625136,3.7317615e-05,0.007414011,0.0,0.24374019,-0.00663793,-0.008939839,0.0042952304,0.0012499903,3.4510333e-05,-0.010784673,1.7452632,0.15650338,0.004771165,1.6423794,-0.009077282,488.10086,6.3883953,0.49371052,0.46214142,0.17548251,0.13220617,inf,inf,inf,inf,1,1,1,1,2,0,2,1,3,1,1,1,0,0
133184000,133180000,908000,47.3977508,8.5456073,-32.1962,-2.810548,-6.25671,3.7317615e-05,0.007414011,0.0,1.0321617,0.056055397,-0.014657101,0.0025246404,0.0012499903,3.4510333e-05,-0.010784673,1.3532245,0.097558126,-0.031778585,1.6421262,-0.009077282,488.10086,6.3825917,0.4623149,0.45741546,0.16454318,0.12834571,inf,inf,inf,inf,1,1,1,1,2,0,2,1,3,1,1,1,0,0
133680000,133676000,908000,47.3977508,8.5456073,-31.551226,-2.7554998,-6.258019,3.7317615e-05,0.007414011,0.0,1.4949876,0.0992274,-0.030632325,-0.012579155,0.0012499903,3.4510333e-05,-0.010784673,0.50033915,0.025709448,0.014350749,1.6418499,-0.009077282,488.10086,6.3839006,0.4724856,0.4572978,0.16961634,0.12930928,inf,inf,inf,inf,1,1,1,1,2,0,2,1,3,1,1,1,0,0
134184000,134180000,908000,47.3977508,8.5456073,-30.755932,-2.681355,-6.2751927,3.7317615e-05,0.007414011,0.0,1.5301274,0.11239668,-0.023951944,-0.0154472515,0.0012499903,3.4510333e-05,-0.010784673,-0.3934796,-0.045944903,0.061144117,1.6420463,-0.009077282,488.10086,6.4010744,0.48389214,0.46176594,0.17299834,0.13102564,inf,inf,inf,inf,1,1,1,1,2,0,2,1,3,1,1,1,0,0
134680000,134676000,908000,47.3977508,8.5456073,-30.053135,-2.6100366,-6.2839956,3.7317615e-05,0.007414011,0.0,1.1301819,0.08608397,0.0010521851,0.004342539,0.0012499903,3.4510333e-05,-0.010784673,-1.2174364,-0.1198037,0.032494772,1.6424341,-0.009077282,488.10086,6.4098773,0.49479765,0.46554136,0.17492528,0.13257669,inf,inf,inf,inf,1,1,1,1,2,0,2,1,3,1,1,1,0,0
135184000,135180000,908000,47.3977508,8.5456073,-29.616772,-2.5573914,-6.282691,3.7317615e-05,0.007414011,0.0,0.38141748,0.028806582,0.016252568,0.015223456,0.0012499903,3.4510333e-05,-0.010784673,-1.7709904,-0.14102314,-0.0044405456,1.642716,-0.009077282,488.10086,6.4085727,0.4631819,0.45660493,0.16078539,0.12826237,inf,inf,inf,inf,1,1,1,1,2,0,2,1,3,1,1,1,0,0
135680000,135676000,908000,47.3977508,8.5456073,-29.604502,-2.533489,-6.2809186,3.7317615e-05,0.007414011,0.0,-0.5152112,-0.04386627,0.0149349375,0.010821599,0.0012499903,3.4510333e-05,-0.010784673,-1.8677828,-0.18158035,0.022190621,1.643222,-0.009077282,488.10086,6.4068003,0.47302592,0.4603565,0.16510467,0.12975648,inf,inf,inf,inf,1,1,1,1,2,0,2,1,3,1,1,1,0,0
136176000,136172000,908000,47.3977508,8.5456073,-30.037405,-2.558494,-6.2759647,3.7317615e-05,0.007414011,0.0,-1.3528489,-0.12086895,0.011326789,0.007830659,0.0012499903,3.4510333e-05,-0.010784673,-1.5097141,-0.18472122,-0.004698522,1.6432176,-0.009077282,488.10086,6.4018464,0.48306218,0.46032763,0.17048493,0.13069747,inf,inf,inf,inf,1,1,1,1,2,0,2,1,3,1,1,1,0,0
136680000,136676000,908000,47.3977508,8.5456073,-30.858688,-2.6156332,-6.2730846,3.7317615e-05,0.007414011,0.0,-1.9402469,-0.17606379,-0.00237337,-0.0034741072,0.0012499903,3.4510333e-05,-0.010784673,-0.7655198,-0.097908646,-0.019800847,1.6433603,-0.009077282,488.10086,6.3989663,0.4945814,0.46119553,0.17605661,0.13188833,inf,inf,inf,inf,1,1,1,1,2,0,2,1,3,1,1,1,0,0
137184000,137180000,908000,47.3977508,8.5456073,-31.888638,-2.6838548,-6.2740407,3.7317615e-05,0.007414011,0.0,-2.1094928,-0.19575995,-0.015534315,-0.012902064,0.0012499903,3.4510333e-05,-0.010784673,0.12904242,-0.057106193,-0.0033248214,1.6436344,-0.009077282,488.10086,6.3999224,0.4630614,0.45656693,0.16280967,0.12823065,inf,inf,inf,inf,1,1,1,1,2,0,2,1,3,1,1,1,0,0
137680000,137676000,908000,47.3977508,8.5456073,-32.888615,-2.7571821,-6.289308,3.7317615e-05,0.007414011,0.0,-1.83114,-0.18294576,-0.010177656,-0.01597326,0.0012499903,3.4510333e-05,-0.010784673,0.99631774,0.026465304,0.093297094,1.6433728,-0.009077282,488.10086,6.4151897,0.47275692,0.45654508,0.165625,0.1293299,inf,inf,inf,inf,1,1,1,1,2,0,2,1,3,1,1,1,0,0
138184000,138180000,908000,47.3977508,8.5456073,-33.676167,-2.8265963,-6.307207,3.7317615e-05,0.007414011,0.0,-1.1689504,-0.14197515,0.029964298,0.008259477,0.0012499903,3.4510333e-05,-0.010784673,1.6110349,0.088551775,0.059327107,1.6430138,-0.009077282,488.10086,6.433089,0.48392093,0.46119118,0.16929704,0.13111177,inf,inf,inf,inf,1,1,1,1,2,0,2,1,3,1,1,1,0,0
138680000,138676000,908000,47.3977508,8.5456073,-34.06399,-2.8717458,-6.310231,3.7317615e-05,0.007414011,0.0,-0.2914759,-0.08268106,0.045193374,0.015150248,0.0012499903,3.4510333e-05,-0.010784673,1.850893,0.11001406,0.03310479,1.6428118,-0.009077282,488.10086,6.436113,0.49457115,0.4650827,0.17438018,0.13258578,inf,inf,inf,inf,1,1,1,1,2,0,2,1,3,1,1,1,0,0
139184000,139180000,908000,47.3977508,8.5456073,-34.013096,-2.8745239,-6.307291,3.7317615e-05,0.007414011,0.0,0.6020624,-0.01074552,0.040595423,0.009508297,0.0012499903,3.4510333e-05,-0.010784673,1.6523612,0.10106517,0.009004957,1.6423291,-0.009077282,488.10086,6.4331727,0.4630424,0.4562574,0.16381718,0.12819307,inf,inf,inf,inf,1,1,1,1,2,0,2,1,3,1,1,1,0,0
139680000,139676000,908000,47.3977508,8.5456073,-33.57003,-2.8348331,-6.3224835,3.7317615e-05,0.007414011,0.0,1.2628372,0.051662035,0.040224012,-0.00440799,0.0012499903,3.4510333e-05,-0.010784673,1.0775182,0.08950577,0.061932016,1.6421071,-0.009077282,488.10086,6.448365,0.47584835,0.45668983,0.17189713,0.12961116,inf,inf,inf,inf,1,1,1,1,2,0,2,1,3,1,1,1,0,0
140184000,140180000,908000,47.3977508,8.5456073,-32.84428,-2.779126,-6.333441,3.7317615e-05,0.007414011,0.0,1.5610919,0.077375956,0.04096603,-0.008933683,0.0012499903,3.4510333e-05,-0.010784673,0.11464388,0.00079115847,-0.028356908,1.6419675,-0.009077282,488.10086,6.4593225,0.45059782,0.4529042,0.16158673,0.1265764,inf,inf,inf,inf,1,1,1,1,2,0,2,1,3,1,1,1,0,0
140680000,140676000,908000,47.3977508,8.5456073,-32.079136,-2.7064474,-6.343568,3.7317615e-05,0.007414011,0.0,1.4150468,0.07749004,0.048360243,-0.0054381397,0.0012499903,3.4510333e-05,-0.010784673,-0.7650534,-0.063839085,0.022528691,1.6424304,-0.009077282,488.10086,6.4694495,0.4620508,0.45330727,0.16504198,0.12803662,inf,inf,inf,inf,1,1,1,1,2,0,2,1,3,1,1,1,0,0
141184000,141180000,908000,47.3977508,8.5456073,-31.472519,-2.645909,-6.3414416,3.7317615e-05,0.007414011,0.0,0.85258245,0.033400264,0.06805512,0.015249949,0.0012499903,3.4510333e-05,-0.010784673,-1.4890013,-0.12176243,0.021670943,1.6424894,-0.009077282,488.10086,6.4673233,0.47473562,0.45821968,0.16813077,0.13010255,inf,inf,inf,inf,1,1,1,1,2,0,2,1,3,1,1,1,0,0
141680000,141676000,908000,47.3977508,8.5456073,-31.216211,-2.6149585,-6.332142,3.7317615e-05,0.007414011,0.0,0.02597861,-0.03474362,0.06330157,0.013124494,0.0012499903,3.4510333e-05,-0.010784673,-1.828794,-0.1754483,0.006144866,1.6425629,-0.009077282,488.10086,6.4580235,0.48680222,0.4624263,0.17193316,0.13184878,inf,inf,inf,inf,1,1,1,1,2,0,2,1,3,1,1,1,0,0
142184000,142180000,908000,47.3977508,8.5456073,-31.401829,-2.615429,-6.3335447,3.7317615e-05,0.007414011,0.0,-0.8805378,-0.109217644,0.06723639,0.012068814,0.0012499903,3.4510333e-05,-0.010784673,-1.722445,-0.16739437,-0.031997446,1.6431682,-0.009077282,488.10086,6.4594264,0.4579156,0.45402393,0.16084346,0.1277073,inf,inf,inf,inf,1,1,1,1,2,0,2,1,3,1,1,1,0,0
142680000,142676000,908000,47.3977508,8.5456073,-32.012432,-2.6445866,-6.327851,3.7317615e-05,0.007414011,0.0,-1.6286678,-0.16824941,0.053802785,0.0011461847,0.0012499903,3.4510333e-05,-0.010784673,-1.2505847,-0.1370214,-0.03974046,1.6432511,-0.009077282,488.10086,6.4537325,0.46842685,0.45785895,0.16629733,0.12927467,inf,inf,inf,inf,1,1,1,1,2,0,2,1,3,1,1,1,0,0
143184000,143180000,908000,47.3977508,8.5456073,-32.94679,-2.7049477,-6.329281,3.7317615e-05,0.007414011,0.0,-2.0422707,-0.2068129,0.041953307,-0.008704924,0.0012499903,3.4510333e-05,-0.010784673,-0.40135187,-0.07073465,-0.008193775,1.6433564,-0.009077282,488.10086,6.4551625,0.48031262,0.4585639,0.17139164,0.13054006,inf,inf,inf,inf,1,1,1,1,2,0,2,1,3,1,1,1,0,0
143680000,143676000,908000,47.3977508,8.5456073,-33.979458,-2.7869196,-6.3313584,3.7317615e-05,0.007414011,0.0,-2.0196004,-0.21549693,0.03530188,-0.011471912,0.0012499903,3.4510333e-05,-0.010784673,0.4820662,-0.0076919235,0.031051224,1.6433179,-0.009077282,488.10086,6.45724,0.49180147,0.46250317,0.17483567,0.13219468,inf,inf,inf,inf,1,1,1,1,2,0,2,1,3,1,1,1,0,0
144184000,144180000,908000,47.3977508,8.5456073,-34.930885,-2.8726354,-6.334385,3.7317615e-05,0.007414011,0.0,-1.5720162,-0.19024646,0.05305679,0.0066859284,0.0012499903,3.4510333e-05,-0.010784673,1.2776716,0.09989515,0.027746892,1.6432232,-0.009077282,488.10086,6.4602666,0.46106175,0.4576401,0.16098183,0.1285024,inf,inf,inf,inf,1,1,1,1,2,0,2,1,3,1,1,1,0,0
144680000,144676000,908000,47.3977508,8.5456073,-35.562305,-2.942109,-6.3281155,3.7317615e-05,0.007414011,0.0,-0.8080122,-0.13908798,0.06355223,0.016617566,0.0012499903,3.4510333e-05,-0.010784673,1.7989917,0.11439938,0.013426877,1.643154,-0.009077282,488.10086,6.453997,0.47124353,0.4613462,0.16499159,0.13003632,inf,inf,inf,inf,1,1,1,1,2,0,2,1,3,1,1,1,0,0
145184000,145180000,908000,47.3977508,8.5456073,-35.76794,-2.981077,-6.311008,3.7317615e-05,0.007414011,0.0,0.10890404,-0.066903636,0.046772867,0.0100289285,0.0012499903,3.4510333e-05,-0.010784673,1.8477806,0.15139122,-0.08087046,1.6428094,-0.009077282,488.10086,6.4368896,0.48266152,0.46186054,0.17112292,0.13112809,inf,inf,inf,inf,1,1,1,1,2,0,2,1,3,1,1,1,0,0
145680000,145676000,908000,47.3977508,8.5456073,-35.52035,-2.9835298,-6.305338,3.7317615e-05,0.007414011,0.0,0.92704713,0.0034198985,0.027915193,-0.0035915652,0.0012499903,3.4510333e-05,-0.010784673,1.4291793,0.12696043,-0.016207805,1.6421849,-0.009077282,488.10086,6.4312196,0.49388787,0.46566445,0.1778536,0.13256021,inf,inf,inf,inf,1,1,1,1,2,0,2,1,3,1,1,1,0,0
146176000,146172000,908000,47.3977508,8.5456073,-34.934254,-2.953307,-6.2954874,3.7317615e-05,0.007414011,0.0,1.4482517,0.061538704,0.009168891,-0.010254984,0.0012499903,3.4510333e-05,-0.010784673,0.6990254,0.06712657,-0.0559492,1.6417782,-0.009077282,488.10086,6.421369,0.46173233,0.45589036,0.16520862,0.12798141,inf,inf,inf,inf,1,1,1,1,2,0,2,1,3,1,1,1,0,0
146680000,146676000,908000,47.3977508,8.5456073,-34.15753,-2.9041746,-6.290651,3.7317615e-05,0.007414011,0.0,1.555869,0.08347515,-0.0055294377,-0.013928041,0.0012499903,3.4510333e-05,-0.010784673,-0.25792912,-0.012012649,-0.018968245,1.6417605,-0.009077282,488.10086,6.4165325,0.47260174,0.45648688,0.16888624,0.12921955,inf,inf,inf,inf,1,1,1,1,2,0,2,1,3,1,1,1,0,0
147184000,147180000,908000,47.3977508,8.5456073,-33.429302,-2.8665342,-6.2901006,3.7317615e-05,0.007414011,0.0,1.2136106,0.06324335,0.0059255348,0.00063320436,0.0012499903,3.4510333e-05,-0.010784673,-1.0957422,-0.076467454,0.04938058,1.6415814,-0.009077282,488.10086,6.4159822,0.48396465,0.4611519,0.17127232,0.1310375,inf,inf,inf,inf,1,1,1,1,2,0,2,1,3,1,1,1,0,0
147680000,147676000,908000,47.3977508,8.5456073,-32.962265,-2.8464167,-6.272941,3.7317615e-05,0.007414011,0.0,0.51544356,0.01624047,0.008412678,0.013623863,0.0012499903,3.4510333e-05,-0.010784673,-1.6881166,-0.11852383,-0.020037403,1.6422153,-0.009077282,488.10086,6.398823,0.49474788,0.4651769,0.17365687,0.1326211,inf,inf,inf,inf,1,1,1,1,2,0,2,1,3,1,1,1,0,0
148184000,148180000,908000,47.3977508,8.5456073,-32.885975,-2.8546338,-6.2548103,3.7317615e-05,0.007414011,0.0,-0.38501894,-0.054904774,-0.013456337,0.0026559113,0.0012499903,3.4510333e-05,-0.010784673,-1.8667932,-0.14725791,-0.0103488555,1.6429011,-0.009077282,488.10086,6.380692,0.46318486,0.45645806,0.16110794,0.1282911,inf,inf,inf,inf,1,1,1,1,2,0,2,1,3,1,1,1,0,0
148680000,148676000,908000,47.3977508,8.5456073,-33.267365,-2.89704,-6.246071,3.7317615e-05,0.007414011,0.0,-1.2435976,-0.12207197,-0.019892335,0.0019885623,0.0012499903,3.4510333e-05,-0.010784673,-1.5563812,-0.12340345,-0.0046836208,1.6431667,-0.009077282,488.10086,6.3719525,0.47296503,0.45648098,0.16629083,0.12926458,inf,inf,inf,inf,1,1,1,1,2,0,2,1,3,1,1,1,0,0
149184000,149180000,908000,47.3977508,8.5456073,-34.051567,-2.96532,-6.251817,3.7317615e-05,0.007414011,0.0,-1.8703012,-0.16973445,-0.03278719,-0.015448112,0.0012499903,3.4510333e-05,-0.010784673,-0.91498053,-0.07514158,-0.0011194496,1.6440649,-0.009077282,488.10086,6.377699,0.48389307,0.46104923,0.17173378,0.13092183,inf,inf,inf,inf,1,1,1,1,2,0,2,1,3,1,1,1,0,0
149680000,149676000,908000,47.3977508,8.5456073,-35.05388,-3.052788,-6.2569575,3.7317615e-05,0.007414011,0.0,-2.0971618,-0.1894325,-0.035026617,-0.016475394,0.0012499903,3.4510333e-05,-0.010784673,-0.013146025,0.009126808,-0.03959238,1.6437818,-0.009077282,488.10086,6.382839,0.494498,0.46488702,0.17564295,0.13244712,inf,inf,inf,inf,1,1,1,1,2,0,2,1,3,1,1,1,0,0
150184000,150180000,908000,47.3977508,8.5456073,-36.084915,-3.141063,-6.2550793,3.7317615e-05,0.007414011,0.0,-1.8773758,-0.1711772,-0.034271117,-0.008207165,0.0012499903,3.4510333e-05,-0.010784673,0.87298596,0.07428461,0.0202246,1.6438867,-0.009077282,488.10086,6.380961,0.46289212,0.4559753,0.16168407,0.12818229,inf,inf,inf,inf,1,1,1,1,2,0,2,1,3,1,1,1,0,0
150680000,150676000,908000,47.3977508,8.5456073,-36.89646,-3.2147682,-6.2496843,3.7317615e-05,0.007414011,0.0,-1.2676888,-0.12132388,-0.017940424,0.011435595,0.0012499903,3.4510333e-05,-0.010784673,1.571928,0.13762403,-0.037075017,1.6434728,-0.009077282,488.10086,6.375566,0.4726324,0.45967203,0.16490899,0.12974624,inf,inf,inf,inf,1,1,1,1,2,0,2,1,3,1,1,1,0,0
151184000,151180000,908000,47.3977508,8.5456073,-37.34552,-3.2737272,-6.246828,3.7317615e-05,0.007414011,0.0,-0.39470756,-0.054885603,-0.018339384,0.007599954,0.0012499903,3.4510333e-05,-0.010784673,1.8424705,0.15703951,-0.013698823,1.6427879,-0.009077282,488.10086,6.3727098,0.48369852,0.46411034,0.17010859,0.13140504,inf,inf,inf,inf,1,1,1,1,2,0,2,1,3,1,1,1,0,0
151680000,151676000,908000,47.3977508,8.5456073,-37.340816,-3.298185,-6.245229,3.7317615e-05,0.007414011,0.0,0.5001474,0.02018073,-0.027400307,-0.0015648976,0.0012499903,3.4510333e-05,-0.010784673,1.701203,0.1727728,0.0051362435,1.642221,-0.009077282,488.10086,6.3711104,0.49444672,0.46384618,0.1765184,0.13226473,inf,inf,inf,inf,1,1,1,1,2,0,2,1,3,1,1,1,0,0
152184000,152180000,908000,47.3977508,8.5456073,-36.923134,-3.295572,-6.2400117,3.7317615e-05,0.007414011,0.0,1.2175367,0.085557066,-0.037421748,-0.00635227,0.0012499903,3.4510333e-05,-0.010784673,1.1163428,0.13043459,-0.07019191,1.6416407,-0.009077282,488.10086,6.3658934,0.46282953,0.45878354,0.16515172,0.1283877,inf,inf,inf,inf,1,1,1,1,2,0,2,1,3,1,1,1,0,0
152680000,152676000,908000,47.3977508,8.5456073,-36.23356,-3.2767355,-6.2521896,3.7317615e-05,0.007414011,0.0,1.5607833,0.12359272,-0.042085614,-0.016981201,0.0012499903,3.4510333e-05,-0.010784673,0.24687403,0.11145031,0.02159085,1.6411242,-0.009077282,488.10086,6.3780713,0.47272608,0.4583917,0.1695008,0.12934823,inf,inf,inf,inf,1,1,1,1,2,0,2,1,3,1,1,1,0,0
153184000,153180000,908000,47.3977508,8.5456073,-35.451786,-3.239566,-6.2631593,3.7317615e-05,0.007414011,0.0,1.4634763,0.13114677,-0.03259157,-0.010930645,0.0012499903,3.4510333e-05,-0.010784673,-0.6834768,-0.0009150535,0.04582386,1.6413636,-0.009077282,488.10086,6.389041,0.48400214,0.46279642,0.17246006,0.1311126,inf,inf,inf,inf,1,1,1,1,2,0,2,1,3,1,1,1,0,0
153680000,153676000,908000,47.3977508,8.5456073,-34.82557,-3.1963277,-6.259395,3.7317615e-05,0.007414011,0.0,0.9466345,0.11042229,-0.013441843,0.011019464,0.0012499903,3.4510333e-05,-0.010784673,-1.3943096,-0.07350904,0.0050123776,1.6420815,-0.009077282,488.10086,6.385277,0.49478927,0.46250793,0.17444478,0.13212912,inf,inf,inf,inf,1,1,1,1,2,0,2,1,3,1,1,1,0,0
154184000,154180000,908000,47.3977508,8.5456073,-34.51672,-3.1789627,-6.2435927,3.7317615e-05,0.007414011,0.0,0.123130105,0.052620746,-0.020519475,0.011851645,0.0012499903,3.4510333e-05,-0.010784673,-1.8348229,-0.08557276,-0.06333831,1.6429998,-0.009077282,488.10086,6.3694744,0.46310198,0.45755023,0.16080338,0.12835765,inf,inf,inf,inf,1,1,1,1,2,0,2,1,3,1,1,1,0,0
154680000,154676000,908000,47.3977508,8.5456073,-34.64051,-3.1855423,-6.236172,3.7317615e-05,0.007414011,0.0,-0.7798035,-0.017346127,-0.02811852,0.0068011903,0.0012499903,3.4510333e-05,-0.010784673,-1.8061517,-0.16119952,-0.04770234,1.6434056,-0.009077282,488.10086,6.362054,0.47277716,0.46113756,0.16539615,0.1298105,inf,inf,inf,inf,1,1,1,1,2,0,2,1,3,1,1,1,0,0
155184000,155180000,908000,47.3977508,8.5456073,-35.20581,-3.2276044,-6.241217,3.7317615e-05,0.007414011,0.0,-1.5716192,-0.08749324,-0.031042,-0.0030483697,0.0012499903,3.4510333e-05,-0.010784673,-1.3130584,-0.11049437,-0.010828487,1.6440212,-0.009077282,488.10086,6.367099,0.44624978,0.45259574,0.15606882,0.125716,inf,inf,inf,inf,1,1,1,1,2,0,2,1,3,1,1,1,0,0
155680000,155676000,908000,47.3977508,8.5456073,-36.082672,-3.3004642,-6.2525444,3.7317615e-05,0.007414011,0.0,-2.0343807,-0.12964801,-0.034772165,-0.014187597,0.0012499903,3.4510333e-05,-0.010784673,-0.5292988,-0.026087843,0.020468606,1.6441547,-0.009077282,488.10086,6.378426,0.4574623,0.45627087,0.16219737,0.12758999,inf,inf,inf,inf,1,1,1,1,2,0,2,1,3,1,1,1,0,0
156184000,156180000,908000,47.3977508,8.5456073,-37.129482,-3.3887205,-6.267937,3.7317615e-05,0.007414011,0.0,-2.0765615,-0.14029476,-0.029001545,-0.015630113,0.0012499903,3.4510333e-05,-0.010784673,0.36662588,0.031147812,-0.009384005,1.6441623,-0.009077282,488.10086,6.393819,0.47003832,0.45689332,0.16710038,0.12916401,inf,inf,inf,inf,1,1,1,1,2,0,2,1,3,1,1,1,0,0
156680000,156676000,908000,47.3977508,8.5456073,-38.08852,-3.4668684,-6.276144,3.7317615e-05,0.007414011,0.0,-1.6872331,-0.11468779,-0.011716549,-0.0010087106,0.0012499903,3.4510333e-05,-0.010784673,1.2302463,0.10989808,0.04202686,1.6435547,-0.009077282,488.10086,6.4020257,0.48235592,0.46080503,0.17092544,0.13105927,inf,inf,inf,inf,1,1,1,1,2,0,2,1,3,1,1,1,0,0
157184000,157180000,908000,47.3977508,8.5456073,-38.78677,-3.5255573,-6.2793727,3.7317615e-05,0.007414011,0.0,-0.9486108,-0.05543763,0.012442549,0.016291734,0.0012499903,3.4510333e-05,-0.010784673,1.7576592,0.10263913,0.007343478,1.6431001,-0.009077282,488.10086,6.4052544,0.45463306,0.4562326,0.15929441,0.12764093,inf,inf,inf,inf,1,1,1,1,2,0,2,1,3,1,1,1,0,0
157680000,157676000,908000,47.3977508,8.5456073,-39.062546,-3.5539758,-6.2756796,3.7317615e-05,0.007414011,0.0,-0.05535555,0.017290853,0.006036567,0.007436153,0.0012499903,3.4510333e-05,-0.010784673,1.8331443,0.15417889,-0.01741573,1.6425571,-0.009077282,488.10086,6.4015613,0.46835512,0.45654055,0.16720788,0.12922996,inf,inf,inf,inf,1,1,1,1,2,0,2,1,3,1,1,1,0,0
158184000,158180000,908000,47.3977508,8.5456073,-38.887802,-3.5483024,-6.2677293,3.7317615e-05,0.007414011,0.0,0.7918996,0.0904108,-0.004957569,0.002700118,0.0012499903,3.4510333e-05,-0.010784673,1.4764404,0.107508905,-0.05632266,1.642002,-0.009077282,488.10086,6.393611,0.44518068,0.44898233,0.1599814,0.12574378,inf,inf,inf,inf,1,1,1,1,2,0,2,1,3,1,1,1,0,0
158680000,158676000,908000,47.3977508,8.5456073,-38.345287,-3.5106854,-6.267117,3.7317615e-05,0.007414011,0.0,1.3594372,0.14384997,-0.018645331,-0.0085108355,0.0012499903,3.4510333e-05,-0.010784673,0.75839484,0.07098819,-0.009573064,1.6413815,-0.009077282,488.10086,6.3929987,0.45731327,0.45313713,0.1664615,0.12771858,inf,inf,inf,inf,1,1,1,1,2,0,2,1,3,1,1,1,0,0
159184000,159180000,908000,47.3977508,8.5456073,-37.58675,-3.4562473,-6.270498,3.7317615e-05,0.007414011,0.0,1.5270109,0.16242293,-0.028182313,-0.015087633,0.0012499903,3.4510333e-05,-0.010784673,-0.16786204,0.052542713,-0.00078789884,1.6413414,-0.009077282,488.10086,6.3963795,0.47079068,0.45444682,0.17127228,0.12941302,inf,inf,inf,inf,1,1,1,1,2,0,2,1,3,1,1,1,0,0
159680000,159676000,908000,47.3977508,8.5456073,-36.85559,-3.401777,-6.2687764,3.7317615e-05,0.007414011,0.0,1.2458848,0.15133855,-0.017335208,0.0011723745,0.0012499903,3.4510333e-05,-0.010784673,-1.012349,-0.012631862,0.018243676,1.6420224,-0.009077282,488.10086,6.394658,0.48372608,0.45901632,0.17403668,0.13141543,inf,inf,inf,inf,1,1,1,1,2,0,2,1,3,1,1,1,0,0
160184000,160180000,908000,47.3977508,8.5456073,-36.34297,-3.3655648,-6.2546597,3.7317615e-05,0.007414011,0.0,0.57946366,0.100130334,-0.010527425,0.015388755,0.0012499903,3.4510333e-05,-0.010784673,-1.6164395,-0.08876097,-0.04978105,1.6422105,-0.009077282,488.10086,6.3805413,0.45548937,0.45498618,0.1601479,0.12802735,inf,inf,inf,inf,1,1,1,1,2,0,2,1,3,1,1,1,0,0
160680000,160680000,908000,47.3977508,8.5456073,-36.216347,-3.3521235,-6.2416906,3.7317615e-05,0.007414011,0.0,-0.3053285,0.031670704,-0.02159086,0.010638505,0.0012499903,3.4510333e-05,-0.010784673,-1.9164287,-0.1119079,-0.0364026,1.6430869,-0.009077282,488.10086,6.3675723,0.46653467,0.45536444,0.16422316,0.12920585,inf,inf,inf,inf,1,1,1,1,2,0,2,1,3,1,1,1,0,0
161184000,161184000,908000,47.3977508,8.5456073,-36.552227,-3.3689594,-6.2304773,3.7317615e-05,0.007414011,0.0,-1.2000086,-0.042581506,-0.03466398,0.003987783,0.0012499903,3.4510333e-05,-0.010784673,-1.6588182,-0.10862317,-0.034807246,1.6439254,-0.009077282,488.10086,6.356359,0.478727,0.460401,0.16983908,0.13096595,inf,inf,inf,inf,1,1,1,1,2,0,2,1,3,1,1,1,0,0
161680000,161680000,908000,47.3977508,8.5456073,-37.285797,-3.4097865,-6.2212687,3.7317615e-05,0.007414011,0.0,-1.8674325,-0.10038829,-0.053987265,-0.007753306,0.0012499903,3.4510333e-05,-0.010784673,-1.0044534,-0.123278916,-0.08576642,1.6444681,-0.009077282,488.10086,6.3471503,0.49025264,0.46459183,0.17524335,0.13248514,inf,inf,inf,inf,1,1,1,1,2,0,2,1,3,1,1,1,0,0
162184000,162184000,908000,47.3977508,8.5456073,-38.29436,-3.4719958,-6.226357,3.7317615e-05,0.007414011,0.0,-2.1610565,-0.13134508,-0.064819686,-0.017684909,0.0012499903,3.4510333e-05,-0.010784673,-0.17535965,0.0021597077,0.014095566,1.6445203,-0.009077282,488.10086,6.3522387,0.45989364,0.4558649,0.16239168,0.12815347,inf,inf,inf,inf,1,1,1,1,2,0,2,1,3,1,1,1,0,0
162680000,162680000,908000,47.3977508,8.5456073,-39.33377,-3.545826,-6.221249,3.7317615e-05,0.007414011,0.0,-2.008556,-0.13403217,-0.07095025,-0.0129725365,0.0012499903,3.4510333e-05,-0.010784673,0.73257864,0.06575019,-0.0588987,1.6441282,-0.009077282,488.10086,6.347131,0.47010803,0.45963,0.16545002,0.12972054,inf,inf,inf,inf,1,1,1,1,2,0,2,1,3,1,1,1,0,0
163184000,163184000,908000,47.3977508,8.5456073,-40.2165,-3.611474,-6.2207193,3.7317615e-05,0.007414011,0.0,-1.437112,-0.096471354,-0.053939838,0.005099633,0.0012499903,3.4510333e-05,-0.010784673,1.4767919,0.10251378,0.030601395,1.643955,-0.009077282,488.10086,6.346601,0.4815774,0.46010107,0.16888376,0.13088083,inf,inf,inf,inf,1,1,1,1,2,0,2,1,3,1,1,1,0,0
163680000,163680000,908000,47.3977508,8.5456073,-40.74085,-3.653317,-6.2173343,3.7317615e-05,0.007414011,0.0,-0.6022423,-0.040237315,-0.047167428,0.008729137,0.0012499903,3.4510333e-05,-0.010784673,1.8724793,0.14325015,-0.023145227,1.6432822,-0.009077282,488.10086,6.343216,0.49257848,0.4637998,0.1734576,0.13231917,inf,inf,inf,inf,1,1,1,1,2,0,2,1,3,1,1,1,0,0
164184000,164184000,908000,47.3977508,8.5456073,-40.820927,-3.666107,-6.2196555,3.7317615e-05,0.007414011,0.0,0.31736064,0.030469459,-0.051356837,-0.00057990034,0.0012499903,3.4510333e-05,-0.010784673,1.7582363,0.13334702,-0.042635944,1.6426879,-0.009077282,488.10086,6.345537,0.46138698,0.45492506,0.16259015,0.12790225,inf,inf,inf,inf,1,1,1,1,2,0,2,1,3,1,1,1,0,0
164680000,164680000,908000,47.3977508,8.5456073,-40.490223,-3.636686,-6.231596,3.7317615e-05,0.007414011,0.0,1.0547022,0.09391505,-0.048598193,-0.007979046,0.0012499903,3.4510333e-05,-0.010784673,1.2170125,0.1059616,-0.023806466,1.6423502,-0.009077282,488.10086,6.3574777,0.47135973,0.4586348,0.16850278,0.12935752,inf,inf,inf,inf,1,1,1,1,2,0,2,1,3,1,1,1,0,0
165184000,165184000,908000,47.3977508,8.5456073,-39.849426,-3.578707,-6.2463593,3.7317615e-05,0.007414011,0.0,1.459952,0.130279,-0.047284037,-0.015777469,0.0012499903,3.4510333e-05,-0.010784673,0.39793932,0.018290417,-0.020421108,1.6422669,-0.009077282,488.10086,6.372241,0.48270905,0.45938906,0.17353487,0.13056906,inf,inf,inf,inf,1,1,1,1,2,0,2,1,3,1,1,1,0,0
165680000,165680000,908000,47.3977508,8.5456073,-39.101223,-3.5088067,-6.2492228,3.7317615e-05,0.007414011,0.0,1.430397,0.13210048,-0.04537557,-0.010066582,0.0012499903,3.4510333e-05,-0.010784673,-0.5387819,-0.043804523,0.020778736,1.6423881,-0.009077282,488.10086,6.3751044,0.49367294,0.46340925,0.1764565,0.1321935,inf,inf,inf,inf,1,1,1,1,2,0,2,1,3,1,1,1,0,0
166184000,166184000,908000,47.3977508,8.5456073,-38.44847,-3.4385216,-6.2536182,3.7317615e-05,0.007414011,0.0,0.96936566,0.09962782,-0.027112333,0.005791225,0.0012499903,3.4510333e-05,-0.010784673,-1.3011572,-0.103289284,0.07019191,1.6427623,-0.009077282,488.10086,6.3795,0.4621175,0.45473993,0.1614587,0.12797798,inf,inf,inf,inf,1,1,1,1,2,0,2,1,3,1,1,1,0,0
166680000,166680000,908000,47.3977508,8.5456073,-38.099064,-3.395446,-6.244495,3.7317615e-05,0.007414011,0.0,0.20504001,0.037184402,-0.01613504,0.019317292,0.0012499903,3.4510333e-05,-0.010784673,-1.7681696,-0.16978262,-0.03926828,1.6430346,-0.009077282,488.10086,6.3703766,0.47194332,0.45856628,0.16433395,0.12953271,inf,inf,inf,inf,1,1,1,1,2,0,2,1,3,1,1,1,0,0
167184000,167184000,908000,47.3977508,8.5456073,-38.170185,-3.3809085,-6.2280936,3.7317615e-05,0.007414011,0.0,-0.70441616,-0.0405324,-0.03265461,0.0114423465,0.0012499903,3.4510333e-05,-0.010784673,-1.8080071,-0.17054473,-0.06152689,1.6434413,-0.009077282,488.10086,6.3539753,0.48277706,0.46309403,0.16906431,0.13115887,inf,inf,inf,inf,1,1,1,1,2,0,2,1,3,1,1,1,0,0
167680000,167680000,908000,47.3977508,8.5456073,-38.69459,-3.3958342,-6.229791,3.7317615e-05,0.007414011,0.0,-1.5141845,-0.11221661,-0.041129716,-0.0020425837,0.0012499903,3.4510333e-05,-0.010784673,-1.4172844,-0.1385876,-0.0400627,1.6440959,-0.009077282,488.10086,6.355673,0.49329194,0.4628067,0.17455503,0.13200489,inf,inf,inf,inf,1,1,1,1,2,0,2,1,3,1,1,1,0,0
168184000,168184000,908000,47.3977508,8.5456073,-39.584114,-3.4419265,-6.235797,3.7317615e-05,0.007414011,0.0,-2.0395205,-0.16536488,-0.04721033,-0.011237509,0.0012499903,3.4510333e-05,-0.010784673,-0.6548529,-0.09182855,0.016600823,1.6443839,-0.009077282,488.10086,6.3616786,0.46193406,0.45774636,0.16242322,0.12816474,inf,inf,inf,inf,1,1,1,1,2,0,2,1,3,1,1,1,0,0
168680000,168680000,908000,47.3977508,8.5456073,-40.637203,-3.490415,-6.2364745,3.7317615e-05,0.007414011,0.0,-2.142014,-0.18058167,-0.05409482,-0.012685645,0.0012499903,3.4510333e-05,-0.010784673,0.24332209,-0.067802,-0.088107765,1.6440895,-0.009077282,488.10086,6.362356,0.47156578,0.4612677,0.16601717,0.12970087,inf,inf,inf,inf,1,1,1,1,2,0,2,1,3,1,1,1,0,0
169184000,169184000,908000,47.3977508,8.5456073,-41.6593,-3.547101,-6.2505727,3.7317615e-05,0.007414011,0.0,-1.7940137,-0.16297635,-0.043493416,-0.009479688,0.0012499903,3.4510333e-05,-0.010784673,1.1080171,0.041206934,0.045311633,1.6439339,-0.009077282,488.10086,6.3764544,0.48257607,0.46151283,0.16931902,0.13089064,inf,inf,inf,inf,1,1,1,1,2,0,2,1,3,1,1,1,0,0
169680000,169680000,908000,47.3977508,8.5456073,-42.413235,-3.5916138,-6.2573867,3.7317615e-05,0.007414011,0.0,-1.0952243,-0.11833159,-0.012231102,0.013007274,0.0012499903,3.4510333e-05,-0.010784673,1.6907698,0.11772455,0.026451422,1.6436937,-0.009077282,488.10086,6.3832684,0.49324435,0.46505928,0.1730263,0.13239247,inf,inf,inf,inf,1,1,1,1,2,0,2,1,3,1,1,1,0,0
170176000,170176000,908000,47.3977508,8.5456073,-42.770977,-3.6047332,-6.2615495,3.7317615e-05,0.007414011,0.0,-0.20233877,-0.05128878,-0.0045077405,0.010738063,0.0012499903,3.4510333e-05,-0.010784673,1.8993589,0.10882378,0.00024307518,1.643454,-0.009077282,488.10086,6.387431,0.46107492,0.4591415,0.16126561,0.12833324,inf,inf,inf,inf,1,1,1,1,2,0,2,1,3,1,1,1,0,0
170680000,170680000,908000,47.3977508,8.5456073,-42.688576,-3.5882246,-6.260712,3.7317615e-05,0.007414011,0.0,0.6725793,0.020176098,-0.010424459,0.0036453423,0.0012499903,3.4510333e-05,-0.010784673,1.6177994,0.104121536,-0.017919576,1.6433451,-0.009077282,488.10086,6.386594,0.47162855,0.45939812,0.1678171,0.12941077,inf,inf,inf,inf,1,1,1,1,2,0,2,1,3,1,1,1,0,0
171176000,171176000,908000,47.3977508,8.5456073,-42.213055,-3.5515277,-6.26188,3.7317615e-05,0.007414011,0.0,1.297013,0.06992126,-0.020046689,-0.0058569545,0.0012499903,3.4510333e-05,-0.010784673,0.9502447,0.05185563,-0.016933305,1.6428994,-0.009077282,488.10086,6.3877616,0.48193625,0.45903066,0.17353512,0.13033019,inf,inf,inf,inf,1,1,1,1,2,0,2,1,3,1,1,1,0,0
171680000,171680000,908000,47.3977508,8.5456073,-41.4855,-3.5006204,-6.271047,3.7317615e-05,0.007414011,0.0,1.5399518,0.09271372,-0.026113778,-0.015198262,0.0012499903,3.4510333e-05,-0.010784673,-0.0008842325,0.013508426,0.034567896,1.6424028,-0.009077282,488.10086,6.396929,0.49370378,0.46350482,0.17786667,0.13206185,inf,inf,inf,inf,1,1,1,1,2,0,2,1,3,1,1,1,0,0
172176000,172176000,908000,47.3977508,8.5456073,-40.740932,-3.4464238,-6.28467,3.7317615e-05,0.007414011,0.0,1.3402171,0.0839994,-0.0090199215,-0.005010792,0.0012499903,3.4510333e-05,-0.010784673,-0.8336532,-0.05599066,0.06466917,1.6425917,-0.009077282,488.10086,6.4105515,0.46133116,0.4577636,0.16246755,0.12815759,inf,inf,inf,inf,1,1,1,1,2,0,2,1,3,1,1,1,0,0
172680000,172680000,908000,47.3977508,8.5456073,-40.18192,-3.397202,-6.2741065,3.7317615e-05,0.007414011,0.0,0.73280644,0.04198846,0.012041898,0.022600166,0.0012499903,3.4510333e-05,-0.010784673,-1.5400105,-0.13656221,-0.013370997,1.6433582,-0.009077282,488.10086,6.399988,0.47198424,0.45807981,0.16499183,0.12935771,inf,inf,inf,inf,1,1,1,1,2,0,2,1,3,1,1,1,0,0
173184000,173184000,908000,47.3977508,8.5456073,-39.996517,-3.384639,-6.26008,3.7317615e-05,0.007414011,0.0,-0.13093121,-0.030163398,-0.006066853,0.01012917,0.0012499903,3.4510333e-05,-0.010784673,-1.8548676,-0.175033,-0.02380274,1.6434532,-0.009077282,488.10086,6.3859615,0.48299137,0.46235693,0.16881876,0.13100712,inf,inf,inf,inf,1,1,1,1,2,0,2,1,3,1,1,1,0,0
173680000,173680000,908000,47.3977508,8.5456073,-40.249542,-3.4099376,-6.254903,3.7317615e-05,0.007414011,0.0,-1.0091499,-0.10579553,-0.0099095395,0.006644326,0.0012499903,3.4510333e-05,-0.010784673,-1.6989049,-0.16532892,-0.030848196,1.6438389,-0.009077282,488.10086,6.3807845,0.49347758,0.4620063,0.17373446,0.13187873,inf,inf,inf,inf,1,1,1,1,2,0,2,1,3,1,1,1,0,0
