timestamp,timestamp_sample,ref_timestamp,ref_lat,ref_lon,x,y,z,delta_xy[0],delta_xy[1],delta_z,vx,vy,vz,z_deriv,delta_vxy[0],delta_vxy[1],delta_vz,ax,ay,az,heading,delta_heading,ref_alt,dist_bottom,eph,epv,evh,evv,vxy_max,vz_max,hagl_min,hagl_max,xy_valid,z_valid,v_xy_valid,v_z_valid,xy_reset_counter,z_reset_counter,vxy_reset_counter,vz_reset_counter,heading_reset_counter,heading_good_for_control,xy_global,z_global,dist_bottom_valid,dist_bottom_sensor_bitfield
8684000,8672000,908000,47.3977508,8.5456073,-0.00026095015,0.007863264,0.02823939,-2.805882e-05,0.0072953366,0.0,-7.4174895e-05,-0.0032178627,-0.00013017055,-0.001471834,0.00071164995,-0.0002852638,-0.011124978,0.025215048,-0.007461276,-0.0062556933,1.6201272,0.0028830776,488.10086,0.1,0.47141635,0.3046539,0.019850392,0.014039832,inf,inf,inf,inf,1,1,1,1,2,0,2,1,2,0,1,1,1,0
9180000,9168000,908000,47.3977508,8.5456073,-0.00091750885,0.0082794465,0.02715566,-2.805882e-05,0.0072953366,0.0,-0.0011896985,0.00049667386,0.00042855664,-0.0007345106,0.00071164995,-0.0002852638,-0.011124978,-0.041765828,-0.0066119097,0.020238569,1.6202242,0.0028830776,488.10086,0.10027934,0.44722497,0.29582137,0.009968913,0.007060317,inf,inf,inf,inf,1,1,1,1,2,0,2,1,2,0,1,1,1,0
9684000,9684000,908000,47.3977508,8.5456073,-0.00237253,0.008948257,0.025721516,-2.805882e-05,0.0072953366,0.0,-0.003232566,0.00021945276,-3.3708595e-05,-0.0020207076,0.00071164995,-0.0002852638,-0.011124978,0.0027132772,0.031059228,-0.024845822,1.6193976,0.0028830776,488.10086,0.1,0.42641723,0.28675142,0.018376753,0.013063473,inf,inf,inf,inf,1,1,1,1,2,0,2,1,2,0,1,1,1,0
10184000,10180000,908000,47.3977508,8.5456073,-0.0017335945,0.0092072515,0.02547592,-2.805882e-05,0.0072953366,0.0,-0.0023823082,0.0027460712,-0.00041054067,-0.0017663356,0.00071164995,-0.0002852638,-0.011124978,0.060510635,0.01946154,0.0031068919,1.6196953,0.0028830776,488.10086,0.10038051,0.39224744,0.2793511,0.0070929234,0.005022361,inf,inf,inf,inf,1,1,1,1,2,0,2,1,2,0,1,1,1,0
10680000,10676000,908000,47.3977508,8.5456073,-0.0008831938,0.009323884,0.02356813,-2.805882e-05,0.0072953366,0.0,0.0015818477,0.0005821313,0.00024242082,-0.0017015702,0.00071164995,-0.0002852638,-0.011124978,-0.009461524,0.023501283,-0.012923031,1.6198643,0.0028830776,488.10086,0.1,0.3779827,0.27167502,0.014864526,0.0105741415,inf,inf,inf,inf,1,1,1,1,2,0,2,1,2,0,1,1,1,0
11184000,11180000,908000,47.3977508,8.5456073,-0.00028883634,0.009030758,0.024630014,-2.805882e-05,0.0072953366,0.0,0.0008644231,0.0014684483,-0.00043292184,-0.00073768286,0.00071164995,-0.0002852638,-0.011124978,-0.023871455,-0.015206168,0.011960044,1.6187831,0.0028830776,488.10086,0.10163455,0.36517447,0.2653619,0.020655299,0.014761389,inf,inf,inf,inf,1,1,1,1,2,0,2,1,2,0,1,1,1,0
11680000,11676000,908000,47.3977508,8.5456073,-0.0009976957,0.008817004,0.024625057,-2.805882e-05,0.0072953366,0.0,-0.0021755327,0.00029096956,-0.00050323544,-0.0003626778,0.00071164995,-0.0002852638,-0.011124978,0.01583695,-0.03325073,-0.007421709,1.618238,0.0028830776,488.10086,0.10039147,0.35357767,0.25875318,0.011518265,0.008185585,inf,inf,inf,inf,1,1,1,1,2,0,2,1,2,0,1,1,1,0
12184000,12180000,908000,47.3977508,8.5456073,-0.000887706,0.008372199,0.024321444,-2.805882e-05,0.0072953366,0.0,-0.00028564065,0.0023325956,0.0015311609,0.00064880616,0.00071164995,-0.0002852638,-0.011124978,-0.012142728,0.009280731,-0.002712011,1.6178323,0.0028830776,488.10086,0.1000937,0.33340684,0.25331137,0.029539004,0.02127642,inf,inf,inf,inf,1,1,1,1,2,0,2,1,2,0,1,1,1,0
12680000,12676000,908000,47.3977508,8.5456073,0.00069490314,0.008724529,0.024056455,-2.805882e-05,0.0072953366,0.0,0.004438311,0.00038970663,0.004548967,0.0027487893,0.00071164995,-0.0002852638,-0.011124978,-0.0026741035,0.02025842,0.04542153,1.6166058,0.0028830776,488.10086,0.10035869,0.32531214,0.24871244,0.051948767,0.03732578,inf,inf,inf,inf,1,1,1,1,2,0,2,1,2,0,1,1,1,0
13184000,13180000,908000,47.3977508,8.5456073,0.00386112,0.0095645925,0.0253672,-2.805882e-05,0.0072953366,0.0,0.008968951,0.0016049213,0.008585219,0.006282373,0.00071164995,-0.0002852638,-0.011124978,-0.006154383,-0.007901223,0.00298582,1.6152519,0.0028830776,488.10086,0.1,0.31236133,0.24540423,0.0728895,0.05180576,inf,inf,inf,inf,1,1,1,1,2,0,2,1,2,0,1,1,1,0
13680000,13676000,908000,47.3977508,8.5456073,0.007465124,0.009986873,0.02305372,-2.805882e-05,0.0072953366,0.0,0.0044543548,-0.0039538853,-0.040219165,-0.043361794,0.00071164995,-0.0002852638,-0.011124978,-0.0055656526,-0.11201937,-0.24877207,1.6170841,0.0028830776,488.10086,0.10293925,0.31247512,0.24590343,0.09401878,0.065414205,inf,inf,inf,inf,1,1,1,1,2,0,2,1,2,0,1,1,1,0
14184000,14180000,908000,47.3977508,8.5456073,-0.0064440435,-0.025644494,-0.055326153,-2.805882e-05,0.0072953366,0.0,-0.047138274,-0.12202749,-0.28900778,-0.29162645,0.00071164995,-0.0002852638,-0.011124978,-0.030349996,-0.030149704,-0.52960956,1.6203867,0.0028830776,488.10086,0.18131912,0.31992078,0.25054905,0.116446465,0.0785311,inf,inf,inf,inf,1,1,1,1,2,0,2,1,2,0,1,1,1,0
14680000,14676000,908000,47.3977508,8.5456073,-0.036869284,-0.08003509,-0.26043007,-2.805882e-05,0.0072953366,0.0,-0.04889093,-0.08191024,-0.52362543,-0.52603483,0.00071164995,-0.0002852638,-0.011124978,0.077092595,0.13026759,-0.47861597,1.622963,0.0028830776,488.10086,0.38642305,0.3358019,0.26122326,0.13782969,0.09062732,inf,inf,inf,inf,1,1,1,1,2,0,2,1,2,0,1,1,1,0
15184000,15180000,908000,47.3977508,8.5456073,-0.06280578,-0.101872705,-0.5746234,-2.805882e-05,0.0072953366,0.0,-0.021523813,-0.0038841967,-0.7085597,-0.7111581,0.00071164995,-0.0002852638,-0.011124978,0.05969585,0.16051564,-0.33043045,1.6254874,0.0028830776,488.10086,0.70061636,0.34337988,0.27518797,0.14712632,0.09945097,inf,inf,inf,inf,1,1,1,1,2,0,2,1,2,0,1,1,1,0
15680000,15676000,908000,47.3977508,8.5456073,-0.07501238,-0.09675488,-0.9671399,-2.805882e-05,0.0072953366,0.0,0.011665831,0.04436758,-0.8553414,-0.8603002,0.00071164995,-0.0002852638,-0.011124978,0.06496772,0.114498176,-0.24172756,1.6272056,0.0028830776,488.10086,1.0931329,0.36847416,0.29529864,0.16120504,0.10873185,inf,inf,inf,inf,1,1,1,1,2,0,2,1,2,0,1,1,1,0
16184000,16180000,908000,47.3977508,8.5456073,-0.075248696,-0.0692158,-1.4361887,-2.805882e-05,0.0072953366,0.0,0.036475327,0.07397316,-0.9661283,-0.9760052,0.00071164995,-0.0002852638,-0.011124978,0.028949492,-0.002132292,-0.21908525,1.6291138,0.0028830776,488.10086,1.5621817,0.39749664,0.31936148,0.17290717,0.11686136,inf,inf,inf,inf,1,1,1,1,2,0,2,1,2,0,1,1,1,0
16680000,16676000,908000,47.3977508,8.5456073,-0.07247547,-0.032436244,-1.947208,-2.805882e-05,0.0072953366,0.0,0.05122877,0.07206054,-1.0486152,-1.0624294,0.00071164995,-0.0002852638,-0.011124978,0.060274582,-0.027992746,-0.10908208,1.6266562,-0.0084544085,488.10086,2.073201,0.42453647,0.34291226,0.23390466,0.123046204,inf,inf,inf,inf,1,1,1,1,2,0,2,1,3,0,1,1,1,0
17184000,17180000,908000,47.3977508,8.5456073,-0.075232,-0.017313177,-2.5042036,-2.805882e-05,0.0072953366,0.0,0.050731014,0.040461797,-1.1145488,-1.1310006,0.00071164995,-0.0002852638,-0.011124978,0.072821885,-0.04441848,-0.095367424,1.6289204,-0.0084544085,488.10086,2.6301966,0.41515404,0.3605277,0.27697015,0.12357357,inf,inf,inf,inf,1,1,1,1,2,0,2,1,3,0,1,1,0,0
17680000,17676000,908000,47.3977508,8.5456073,-0.06844048,-0.009816076,-3.0830328,-2.805882e-05,0.0072953366,0.0,0.056507602,0.03324745,-1.1642888,-1.1841419,0.00071164995,-0.0002852638,-0.011124978,0.05130989,-0.0032562965,-0.08075404,1.6311815,-0.0084544085,488.10086,3.2090259,0.43774912,0.3809553,0.31176412,0.12671842,inf,inf,inf,inf,1,1,1,1,2,0,2,1,3,1,1,1,0,0
18184000,18180000,908000,47.3977508,8.5456073,-0.04251384,0.019644668,-3.6904824,-2.805882e-05,0.0072953366,0.0,0.06416028,0.044214908,-1.2043074,-1.2236482,0.00071164995,-0.0002852638,-0.011124978,-0.022604914,-0.07502107,-0.11011026,1.6315354,-0.0084544085,488.10086,3.8164754,0.46373865,0.40250435,0.32197443,0.12953408,inf,inf,inf,inf,1,1,1,1,2,0,2,1,3,1,1,1,0,0
18680000,18676000,908000,47.3977508,8.5456073,-0.008058617,0.043406755,-4.308849,-2.805882e-05,0.0072953366,0.0,0.050352015,0.019848138,-1.2337475,-1.2552651,0.00071164995,-0.0002852638,-0.011124978,-0.032293595,-0.04338515,0.0016987323,1.634832,-0.0084544085,488.10086,4.4348416,0.48821643,0.4181811,0.31738168,0.1308251,inf,inf,inf,inf,1,1,1,1,2,0,2,1,3,1,1,1,0,0
19176000,19172000,908000,47.3977508,8.5456073,0.025058372,0.057325646,-4.948763,-2.805882e-05,0.0072953366,0.0,0.026891384,0.0011013747,-1.2499412,-1.2802905,0.00071164995,-0.0002852638,-0.011124978,-0.071811475,-0.053709064,-0.0013327225,1.6372864,-0.0084544085,488.10086,5.0747557,0.45232487,0.42285043,0.24827363,0.1269303,inf,inf,inf,inf,1,1,1,1,2,0,2,1,3,1,1,1,0,0
19680000,19676000,908000,47.3977508,8.5456073,0.043385092,0.06383666,-5.6022487,-2.805882e-05,0.0072953366,0.0,-0.0010150372,-0.009363187,-1.267311,-1.3005295,0.00071164995,-0.0002852638,-0.011124978,-0.07127329,0.016392061,-0.010846182,1.6396551,-0.0084544085,488.10086,5.7282414,0.4705997,0.43376276,0.24563912,0.12756334,inf,inf,inf,inf,1,1,1,1,2,0,2,1,3,1,1,1,0,0
20184000,20180000,908000,47.3977508,8.5456073,0.04545106,0.067009576,-6.197875,-2.805882e-05,0.0072953366,0.0,-0.030037206,-0.026025318,-0.667878,-0.70521355,0.00071164995,-0.0002852638,-0.011124978,-0.08740647,-0.11170423,3.3623724,1.6413093,-0.0084544085,488.10086,6.323868,0.4886659,0.44592053,0.24084252,0.12868044,inf,inf,inf,inf,1,1,1,1,2,0,2,1,3,1,1,1,0,0
20680000,20676000,908000,47.3977508,8.5456073,0.039959747,0.064108625,-6.2767053,-2.805882e-05,0.0072953366,0.0,-0.037579823,-0.03165864,0.07886631,0.021377176,0.00071164995,-0.0002852638,-0.011124978,-0.005063499,0.04939848,-1.1356826,1.6416584,-0.0084544085,488.10086,6.402698,0.50481004,0.45550263,0.23504499,0.12958242,inf,inf,inf,inf,1,1,1,1,2,0,2,1,3,1,1,1,0,0
21184000,21180000,908000,47.3977508,8.5456073,0.032791447,0.0696298,-6.3129835,-2.805882e-05,0.0072953366,0.0,-0.029683601,-0.028901331,-0.040818997,-0.08569166,0.00071164995,-0.0002852638,-0.011124978,0.04127008,-0.021067781,0.06609782,1.6407335,-0.0084544085,488.10086,6.4389763,0.46743026,0.44954234,0.2004868,0.12507644,inf,inf,inf,inf,1,1,1,1,2,0,2,1,3,1,1,1,0,0
21680000,21676000,908000,47.3977508,8.5456073,0.0027445909,0.07028275,-6.3391614,-2.805882e-05,0.0072953366,0.0,-0.248207,-0.048297774,-0.005989765,-0.04317432,0.00071164995,-0.0002852638,-0.011124978,-0.96214205,-0.05731383,0.084311694,1.6406107,-0.0084544085,488.10086,6.465154,0.48052964,0.45655748,0.19918072,0.1262656,inf,inf,inf,inf,1,1,1,1,2,0,2,1,3,1,1,1,0,0
22180000,22172000,908000,47.3977508,8.5456073,-0.23253761,0.06172772,-6.3519955,-2.805882e-05,0.0072953366,0.0,-0.8474318,-0.09323939,0.004490239,-0.030976914,0.00071164995,-0.0002852638,-0.011124978,-1.4674782,-0.14044385,-0.08386,1.6400115,-0.0084544085,488.10086,6.4779882,0.49350438,0.45866197,0.19907422,0.12691101,inf,inf,inf,inf,1,1,1,1,2,0,2,1,3,1,1,1,0,0
22676000,22668000,908000,47.3977508,8.5456073,-0.8269598,0.03297144,-6.3922706,-2.805882e-05,0.0072953366,0.0,-1.6215246,-0.15558665,-0.09649125,-0.13493414,0.00071164995,-0.0002852638,-0.011124978,-1.6202968,-0.17400941,-0.31040978,1.6406004,-0.0084544085,488.10086,6.5182633,0.5065506,0.46392986,0.20137061,0.12834457,inf,inf,inf,inf,1,1,1,1,2,0,2,1,3,1,1,1,0,0
23184000,23184000,908000,47.3977508,8.5456073,-1.8376985,-0.017694516,-6.497488,-2.805882e-05,0.0072953366,0.0,-2.3428702,-0.21823141,-0.25838774,-0.2906996,0.00071164995,-0.0002852638,-0.011124978,-1.170899,-0.14285146,-0.23025739,1.6402764,-0.0084544085,488.10086,6.623481,0.4713049,0.45621717,0.18189052,0.12480571,inf,inf,inf,inf,1,1,1,1,2,0,2,1,3,1,1,1,0,0
23680000,23680000,908000,47.3977508,8.5456073,-3.094567,-0.085958116,-6.655891,-2.805882e-05,0.0072953366,0.0,-2.715428,-0.26132146,-0.17036985,-0.21526942,0.00071164995,-0.0002852638,-0.011124978,-0.33163103,-0.09388862,0.6043827,1.6396394,-0.0084544085,488.10086,6.7818837,0.48245144,0.4604396,0.18309624,0.12677462,inf,inf,inf,inf,1,1,1,1,2,0,2,1,3,1,1,1,0,0
24184000,24184000,908000,47.3977508,8.5456073,-4.471629,-0.18217221,-6.7197204,-2.805882e-05,0.0072953366,0.0,-2.6808407,-0.2874133,0.03149536,-0.022440542,0.00071164995,-0.0002852638,-0.011124978,0.49620736,-0.0629297,0.30258483,1.6403265,-0.0084544085,488.10086,6.845713,0.49469388,0.46509755,0.18227835,0.12925272,inf,inf,inf,inf,1,1,1,1,2,0,2,1,3,1,1,1,0,0
24680000,24680000,908000,47.3977508,8.5456073,-5.7204475,-0.29146746,-6.7089486,-2.805882e-05,0.0072953366,0.0,-2.2365613,-0.2805381,0.12935187,0.07369848,0.00071164995,-0.0002852638,-0.011124978,1.2750607,0.029083133,0.1896601,1.6399927,-0.0084544085,488.10086,6.8349414,0.5059085,0.46482882,0.18289697,0.13102019,inf,inf,inf,inf,1,1,1,1,2,0,2,1,3,1,1,1,0,0
25184000,25184000,908000,47.3977508,8.5456073,-6.697326,-0.39646268,-6.6694593,-2.805882e-05,0.0072953366,0.0,-1.450035,-0.23442528,0.17164816,0.10700545,0.00071164995,-0.0002852638,-0.011124978,1.8386232,0.08967237,0.08329655,1.6403896,-0.0084544085,488.10086,6.795452,0.4710139,0.4558298,0.1710932,0.12752154,inf,inf,inf,inf,1,1,1,1,2,0,2,1,3,1,1,1,0,0
25680000,25680000,908000,47.3977508,8.5456073,-7.2200274,-0.48867413,-6.628321,-2.805882e-05,0.0072953366,0.0,-0.5134104,-0.16686104,0.18277115,0.105408356,0.00071164995,-0.0002852638,-0.011124978,1.9011348,0.18476275,0.0068917866,1.6399908,-0.0084544085,488.10086,6.754314,0.48082533,0.4596373,0.18455599,0.12934169,inf,inf,inf,inf,1,1,1,1,2,0,2,1,3,1,1,1,0,0
26184000,26184000,908000,47.3977508,8.5456073,-7.264812,-0.5603229,-6.5911117,-2.805882e-05,0.0072953366,0.0,0.38551867,-0.08245557,0.17088531,0.08510626,0.00071164995,-0.0002852638,-0.011124978,1.608262,0.16729167,0.004193745,1.6395,-0.0084544085,488.10086,6.7171044,0.49220306,0.4641835,0.19963674,0.13100901,inf,inf,inf,inf,1,1,1,1,2,0,2,1,3,1,1,1,0,0
26680000,26680000,908000,47.3977508,8.5456073,-6.903789,-0.6011181,-6.5484343,-2.805882e-05,0.0072953366,0.0,1.0111752,-0.0005702679,0.15555859,0.075368255,0.00071164995,-0.0002852638,-0.011124978,0.877987,0.18933123,-0.040300187,1.6392452,-0.0084544085,488.10086,6.674427,0.5038595,0.46386084,0.20806408,0.13172911,inf,inf,inf,inf,1,1,1,1,2,0,2,1,3,1,1,1,0,0
27184000,27184000,908000,47.3977508,8.5456073,-6.3150773,-0.61090577,-6.525356,-2.805882e-05,0.0072953366,0.0,1.2316263,0.07512729,0.14549145,0.05866052,0.00071164995,-0.0002852638,-0.011124978,-0.010847172,0.16805807,-1.2107193e-05,1.6398844,-0.0084544085,488.10086,6.6513486,0.46942082,0.4588638,0.18380494,0.12789966,inf,inf,inf,inf,1,1,1,1,2,0,2,1,3,1,1,1,0,0
27680000,27680000,908000,47.3977508,8.5456073,-5.7262545,-0.58159983,-6.501771,-2.805882e-05,0.0072953366,0.0,0.99735004,0.11387818,0.14418261,0.053874377,0.00071164995,-0.0002852638,-0.011124978,-0.8895497,0.008879665,0.0961963,1.6425401,-0.0084544085,488.10086,6.6277637,0.47972202,0.45845804,0.18116815,0.12885098,inf,inf,inf,inf,1,1,1,1,2,0,2,1,3,1,1,1,0,0
28184000,28184000,908000,47.3977508,8.5456073,-5.3344235,-0.5429623,-6.4702406,-2.805882e-05,0.0072953366,0.0,0.37696376,0.08322887,0.1494439,0.061989162,0.00071164995,-0.0002852638,-0.011124978,-1.5309341,-0.0939027,-0.036800276,1.6443601,-0.0084544085,488.10086,6.5962334,0.49116695,0.46270135,0.18048649,0.13062328,inf,inf,inf,inf,1,1,1,1,2,0,2,1,3,1,1,1,0,0
28680000,28680000,908000,47.3977508,8.5456073,-5.3193526,-0.51049376,-6.4407597,-2.805882e-05,0.0072953366,0.0,-0.46596485,0.014634078,0.13254216,0.049781658,0.00071164995,-0.0002852638,-0.011124978,-1.8363414,-0.19963694,-0.02059154,1.6465682,-0.0084544085,488.10086,6.5667524,0.50195444,0.46631578,0.18650182,0.13226035,inf,inf,inf,inf,1,1,1,1,2,0,2,1,3,1,1,1,0,0
29184000,29184000,908000,47.3977508,8.5456073,-5.7385173,-0.50215787,-6.4269657,-2.805882e-05,0.0072953366,0.0,-1.328196,-0.078666545,0.12563503,0.037099272,0.00071164995,-0.0002852638,-0.011124978,-1.6444217,-0.21899496,-0.008410773,1.6454831,-0.0084544085,488.10086,6.5529585,0.46858796,0.45723763,0.17788339,0.1281121,inf,inf,inf,inf,1,1,1,1,2,0,2,1,3,1,1,1,0,0
29680000,29680000,908000,47.3977508,8.5456073,-6.5535455,-0.51355845,-6.4099083,-2.805882e-05,0.0072953366,0.0,-1.9821419,-0.15165024,0.10737135,0.021580717,0.00071164995,-0.0002852638,-0.011124978,-1.0022022,-0.19143301,0.0129183745,1.6436046,-0.0084544085,488.10086,6.535901,0.47832486,0.46094272,0.18774597,0.1297857,inf,inf,inf,inf,1,1,1,1,2,0,2,1,3,1,1,1,0,0
30184000,30184000,908000,47.3977508,8.5456073,-7.64558,-0.5570744,-6.402712,-2.805882e-05,0.0072953366,0.0,-2.2755558,-0.2085958,0.0940972,0.009387447,0.00071164995,-0.0002852638,-0.011124978,-0.15692417,-0.121053115,-0.013279728,1.6428193,-0.0084544085,488.10086,6.5287046,0.48991612,0.46163696,0.19265145,0.13119887,inf,inf,inf,inf,1,1,1,1,2,0,2,1,3,1,1,1,0,0
30680000,30680000,908000,47.3977508,8.5456073,-8.779323,-0.6263804,-6.391334,-2.805882e-05,0.0072953366,0.0,-2.1290865,-0.23406757,0.08541257,0.009246669,0.00071164995,-0.0002852638,-0.011124978,0.8039387,-0.08572274,-0.01659896,1.6423934,-0.0084544085,488.10086,6.517327,0.50145656,0.46167997,0.19230784,0.13245407,inf,inf,inf,inf,1,1,1,1,2,0,2,1,3,1,1,1,0,0
31184000,31184000,908000,47.3977508,8.5456073,-9.78077,-0.70866907,-6.3839703,-2.805882e-05,0.0072953366,0.0,-1.5737146,-0.22379819,0.09783822,0.022770615,0.00071164995,-0.0002852638,-0.011124978,1.4845859,-0.014017641,0.03958493,1.6419312,-0.0084544085,488.10086,6.509963,0.46813992,0.4569644,0.17276824,0.12893064,inf,inf,inf,inf,1,1,1,1,2,0,2,1,3,1,1,1,0,0
31680000,31680000,908000,47.3977508,8.5456073,-10.417057,-0.78600776,-6.370564,-2.805882e-05,0.0072953366,0.0,-0.7489546,-0.18304093,0.09185381,0.018597286,0.00071164995,-0.0002852638,-0.011124978,1.86873,0.106203176,0.028268432,1.6421511,-0.0084544085,488.10086,6.4965568,0.47848752,0.4608956,0.1797384,0.13051838,inf,inf,inf,inf,1,1,1,1,2,0,2,1,3,1,1,1,0,0
32184000,32184000,908000,47.3977508,8.5456073,-10.620212,-0.85058105,-6.3616047,-2.805882e-05,0.0072953366,0.0,0.1640399,-0.11965372,0.07579866,0.00509163,0.00071164995,-0.0002852638,-0.011124978,1.7757905,0.14446783,0.0006211921,1.6420792,-0.0084544085,488.10086,6.4875975,0.4903357,0.4615298,0.1933855,0.13154326,inf,inf,inf,inf,1,1,1,1,2,0,2,1,3,1,1,1,0,0
32680000,32680000,908000,47.3977508,8.5456073,-10.383403,-0.8747943,-6.3546267,-2.805882e-05,0.0072953366,0.0,0.92091525,-0.04024789,0.066006556,0.0016544489,0.00071164995,-0.0002852638,-0.011124978,1.288209,0.14528069,-0.026315449,1.6426895,-0.0084544085,488.10086,6.4806194,0.5022413,0.46535578,0.20560129,0.1328485,inf,inf,inf,inf,1,1,1,1,2,0,2,1,3,1,1,1,0,0
33176000,33176000,908000,47.3977508,8.5456073,-9.838006,-0.86138785,-6.3457584,-2.805882e-05,0.0072953366,0.0,1.3448794,0.024771266,0.04727593,-0.0070348117,0.00071164995,-0.0002852638,-0.011124978,0.42807028,0.08955798,-0.06252061,1.6430018,-0.0084544085,488.10086,6.471751,0.46747732,0.4594899,0.18535744,0.12876135,inf,inf,inf,inf,1,1,1,1,2,0,2,1,3,1,1,1,0,0
33680000,33680000,908000,47.3977508,8.5456073,-9.148928,-0.8258957,-6.349492,-2.805882e-05,0.0072953366,0.0,1.340306,0.058928825,0.044749882,-0.008833193,0.00071164995,-0.0002852638,-0.011124978,-0.40207255,-0.030929744,0.026693566,1.6432664,-0.0084544085,488.10086,6.475485,0.4792036,0.45993474,0.18441573,0.13003261,inf,inf,inf,inf,1,1,1,1,2,0,2,1,3,1,1,1,0,0
34184000,34184000,908000,47.3977508,8.5456073,-8.557243,-0.7800711,-6.3409414,-2.805882e-05,0.0072953366,0.0,0.8977307,0.05671464,0.06023478,0.013639071,0.00071164995,-0.0002852638,-0.011124978,-1.2486746,-0.079743795,0.02071075,1.6449941,-0.0084544085,488.10086,6.466934,0.4912215,0.46031675,0.18169682,0.13134554,inf,inf,inf,inf,1,1,1,1,2,0,2,1,3,1,1,1,0,0
34680000,34680000,908000,47.3977508,8.5456073,-8.261269,-0.7379614,-6.3244805,-2.805882e-05,0.0072953366,0.0,0.14322357,0.008272051,0.053852618,0.015375232,0.00071164995,-0.0002852638,-0.011124978,-1.7787666,-0.16517471,-0.0025797633,1.6458815,-0.0084544085,488.10086,6.4504733,0.50235134,0.46409225,0.18360165,0.13296899,inf,inf,inf,inf,1,1,1,1,2,0,2,1,3,1,1,1,0,0
35184000,35184000,908000,47.3977508,8.5456073,-8.387696,-0.7141841,-6.314207,-2.805882e-05,0.0072953366,0.0,-0.7637019,-0.06758774,0.046084445,0.0112036215,0.00071164995,-0.0002852638,-0.011124978,-1.8385899,-0.2241965,0.07412582,1.6454477,-0.0084544085,488.10086,6.4402,0.46881238,0.45904943,0.17377993,0.12912042,inf,inf,inf,inf,1,1,1,1,2,0,2,1,3,1,1,1,0,0
35680000,35680000,908000,47.3977508,8.5456073,-8.948781,-0.7261323,-6.30751,-2.805882e-05,0.0072953366,0.0,-1.5701178,-0.14347474,0.038145363,0.00446322,0.00071164995,-0.0002852638,-0.011124978,-1.4200462,-0.13715248,0.035371628,1.643303,-0.0084544085,488.10086,6.4335027,0.47871694,0.4587852,0.18473566,0.12993768,inf,inf,inf,inf,1,1,1,1,2,0,2,1,3,1,1,1,0,0
36184000,36184000,908000,47.3977508,8.5456073,-9.882051,-0.7661106,-6.312322,-2.805882e-05,0.0072953366,0.0,-2.1019204,-0.19820462,0.027441753,-0.009917414,0.00071164995,-0.0002852638,-0.011124978,-0.665606,-0.11574119,-0.008855014,1.643005,-0.0084544085,488.10086,6.438315,0.49040946,0.4631917,0.19211344,0.13146336,inf,inf,inf,inf,1,1,1,1,2,0,2,1,3,1,1,1,0,0
36680000,36680000,908000,47.3977508,8.5456073,-10.98158,-0.83684355,-6.3263707,-2.805882e-05,0.0072953366,0.0,-2.2152529,-0.22844163,0.03146918,-0.013153551,0.00071164995,-0.0002852638,-0.011124978,0.21069868,-0.08450284,0.04062615,1.6437515,-0.0084544085,488.10086,6.4523635,0.5018341,0.46687746,0.19226997,0.13289352,inf,inf,inf,inf,1,1,1,1,2,0,2,1,3,1,1,1,0,0
37184000,37184000,908000,47.3977508,8.5456073,-12.06324,-0.93085754,-6.346675,-2.805882e-05,0.0072953366,0.0,-1.8863051,-0.23335055,0.0482003,-0.009313922,0.00071164995,-0.0002852638,-0.011124978,1.1173714,0.024765495,0.062526196,1.643351,-0.0084544085,488.10086,6.4726677,0.46824437,0.4576367,0.16991208,0.12858929,inf,inf,inf,inf,1,1,1,1,2,0,2,1,3,1,1,1,0,0
37680000,37680000,908000,47.3977508,8.5456073,-12.884025,-1.0189549,-6.3544126,-2.805882e-05,0.0072953366,0.0,-1.2027506,-0.19974923,0.07560902,0.009492424,0.00071164995,-0.0002852638,-0.011124978,1.6886444,0.10479598,0.10423455,1.6429626,-0.0084544085,488.10086,6.4804053,0.47844702,0.46110514,0.17120722,0.13012023,inf,inf,inf,inf,1,1,1,1,2,0,2,1,3,1,1,1,0,0
38184000,38184000,908000,47.3977508,8.5456073,-13.310581,-1.0803983,-6.361981,-2.805882e-05,0.0072953366,0.0,-0.3087992,-0.12985568,0.086311616,0.008491404,0.00071164995,-0.0002852638,-0.011124978,1.9000503,0.14281505,0.06549991,1.6430871,-0.0084544085,488.10086,6.4879737,0.4898419,0.4613236,0.18026926,0.1311798,inf,inf,inf,inf,1,1,1,1,2,0,2,1,3,1,1,1,0,0
38680000,38680000,908000,47.3977508,8.5456073,-13.268142,-1.106693,-6.359712,-2.805882e-05,0.0072953366,0.0,0.55670047,-0.050472207,0.08565033,0.009161096,0.00071164995,-0.0002852638,-0.011124978,1.6370102,0.1630643,0.005391426,1.6432409,-0.0084544085,488.10086,6.485705,0.50117016,0.4650674,0.19359738,0.13260327,inf,inf,inf,inf,1,1,1,1,2,0,2,1,3,1,1,1,0,0
39184000,39184000,908000,47.3977508,8.5456073,-12.848718,-1.1001492,-6.365517,-2.805882e-05,0.0072953366,0.0,1.1891129,0.018694147,0.077035494,-0.003658963,0.00071164995,-0.0002852638,-0.011124978,0.94065213,0.097212374,0.02458412,1.6427611,-0.0084544085,488.10086,6.49151,0.46790382,0.4599575,0.18092503,0.12877887,inf,inf,inf,inf,1,1,1,1,2,0,2,1,3,1,1,1,0,0
39680000,39680000,908000,47.3977508,8.5456073,-12.186542,-1.0757155,-6.370741,-2.805882e-05,0.0072953366,0.0,1.431084,0.06161491,0.07095334,-0.010172721,0.00071164995,-0.0002852638,-0.011124978,0.030908091,0.02151713,0.07327645,1.6419439,-0.0084544085,488.10086,6.4967337,0.47838888,0.45954612,0.18320802,0.12985471,inf,inf,inf,inf,1,1,1,1,2,0,2,1,3,1,1,1,0,0
40184000,40184000,908000,47.3977508,8.5456073,-11.48118,-1.042311,-6.3714805,-2.805882e-05,0.0072953366,0.0,1.2321237,0.074599795,0.077410966,-0.00011053542,0.00071164995,-0.0002852638,-0.011124978,-0.8726569,0.0008023489,0.05595665,1.6421714,-0.0084544085,488.10086,6.4974732,0.49021217,0.46383885,0.18101905,0.13174765,inf,inf,inf,inf,1,1,1,1,2,0,2,1,3,1,1,1,0,0
40680000,40680000,908000,47.3977508,8.5456073,-10.9766655,-1.0044198,-6.3684874,-2.805882e-05,0.0072953366,0.0,0.6357364,0.053540587,0.09519942,0.018630892,0.00071164995,-0.0002852638,-0.011124978,-1.5212631,-0.07014641,0.052235086,1.6432817,-0.0084544085,488.10086,6.49448,0.5012587,0.46746543,0.17889391,0.13342361,inf,inf,inf,inf,1,1,1,1,2,0,2,1,3,1,1,1,0,0
41184000,41184000,908000,47.3977508,8.5456073,-10.815877,-0.98134494,-6.368524,-2.805882e-05,0.0072953366,0.0,-0.21580455,-0.0041675423,0.094490595,0.011817502,0.00071164995,-0.0002852638,-0.011124978,-1.8299707,-0.14468636,0.0074030827,1.6439182,-0.0084544085,488.10086,6.494517,0.46817046,0.45830244,0.16514933,0.12908328,inf,inf,inf,inf,1,1,1,1,2,0,2,1,3,1,1,1,0,0
41680000,41680000,908000,47.3977508,8.5456073,-11.092634,-0.9791453,-6.3635907,-2.805882e-05,0.0072953366,0.0,-1.0960299,-0.07489303,0.094081834,0.010643316,0.00071164995,-0.0002852638,-0.011124978,-1.7440789,-0.18760486,0.056685876,1.6440839,-0.0084544085,488.10086,6.4895835,0.4778702,0.46185514,0.17414652,0.13044459,inf,inf,inf,inf,1,1,1,1,2,0,2,1,3,1,1,1,0,0
42176000,42176000,908000,47.3977508,8.5456073,-11.779368,-1.0131226,-6.3655653,-2.805882e-05,0.0072953366,0.0,-1.8015214,-0.13989098,0.08938519,0.0017615703,0.00071164995,-0.0002852638,-0.011124978,-1.1433487,-0.16820964,-0.022715887,1.644372,-0.0084544085,488.10086,6.491558,0.48803923,0.4613641,0.18342696,0.13115516,inf,inf,inf,inf,1,1,1,1,2,0,2,1,3,1,1,1,0,0
42680000,42680000,908000,47.3977508,8.5456073,-12.779595,-1.0815965,-6.367983,-2.805882e-05,0.0072953366,0.0,-2.1662478,-0.18630849,0.08027634,-0.0061249696,0.00071164995,-0.0002852638,-0.011124978,-0.30560282,-0.04875489,0.012517906,1.6440018,-0.0084544085,488.10086,6.4939756,0.4999282,0.465632,0.18843086,0.13266818,inf,inf,inf,inf,1,1,1,1,2,0,2,1,3,1,1,1,0,0
43184000,43184000,908000,47.3977508,8.5456073,-13.868262,-1.157006,-6.382003,-2.805882e-05,0.0072953366,0.0,-2.0807252,-0.19124071,0.07827389,-0.015046083,0.00071164995,-0.0002852638,-0.011124978,0.63836235,0.019898942,0.029257497,1.6437194,-0.0084544085,488.10086,6.5079956,0.4672846,0.4603238,0.16908352,0.12889503,inf,inf,inf,inf,1,1,1,1,2,0,2,1,3,1,1,1,0,0
43680000,43680000,908000,47.3977508,8.5456073,-14.8164,-1.2335141,-6.3959723,-2.805882e-05,0.0072953366,0.0,-1.5841286,-0.16734463,0.1065844,0.004367398,0.00071164995,-0.0002852638,-0.011124978,1.3375068,0.097311005,0.12979655,1.6440555,-0.0084544085,488.10086,6.521965,0.4773357,0.45974442,0.1687772,0.12994057,inf,inf,inf,inf,1,1,1,1,2,0,2,1,3,1,1,1,0,0
44184000,44184000,908000,47.3977508,8.5456073,-15.454244,-1.2898164,-6.3917613,-2.805882e-05,0.0072953366,0.0,-0.7771105,-0.10997891,0.12270417,0.018628523,0.00071164995,-0.0002852638,-0.011124978,1.8363572,0.06743814,0.02837926,1.6438333,-0.0084544085,488.10086,6.517754,0.48862472,0.46407923,0.17349675,0.1316848,inf,inf,inf,inf,1,1,1,1,2,0,2,1,3,1,1,1,0,0
44680000,44680000,908000,47.3977508,8.5456073,-15.640388,-1.3202243,-6.388331,-2.805882e-05,0.0072953366,0.0,0.1311579,-0.043658696,0.114743724,0.009771685,0.00071164995,-0.0002852638,-0.011124978,1.8349953,0.12960733,-0.0062417234,1.6437598,-0.0084544085,488.10086,6.5143237,0.49953708,0.46379715,0.18419261,0.13258047,inf,inf,inf,inf,1,1,1,1,2,0,2,1,3,1,1,1,0,0
45184000,45184000,908000,47.3977508,8.5456073,-15.400289,-1.3229048,-6.3942738,-2.805882e-05,0.0072953366,0.0,0.9262937,0.022785474,0.11011504,-0.00053148856,0.00071164995,-0.0002852638,-0.011124978,1.3491944,0.116362795,0.030792316,1.6427687,-0.0084544085,488.10086,6.5202665,0.46696857,0.45892006,0.17578635,0.1287397,inf,inf,inf,inf,1,1,1,1,2,0,2,1,3,1,1,1,0,0
45680000,45680000,908000,47.3977508,8.5456073,-14.819954,-1.3033412,-6.403145,-2.805882e-05,0.0072953366,0.0,1.4003848,0.07237914,0.104409955,-0.011063561,0.00071164995,-0.0002852638,-0.011124978,0.5557146,0.09248737,0.031025147,1.6421658,-0.0084544085,488.10086,6.5291376,0.4772763,0.45870128,0.18192458,0.12971866,inf,inf,inf,inf,1,1,1,1,2,0,2,1,3,1,1,1,0,0
46184000,46184000,908000,47.3977508,8.5456073,-14.076454,-1.2588603,-6.406049,-2.805882e-05,0.0072953366,0.0,1.4528795,0.09781973,0.107370555,-0.005222927,0.00071164995,-0.0002852638,-0.011124978,-0.35265303,0.007208029,0.019769182,1.6415769,-0.0084544085,488.10086,6.5320415,0.48905692,0.46313557,0.18266915,0.13151766,inf,inf,inf,inf,1,1,1,1,2,0,2,1,3,1,1,1,0,0
46680000,46680000,908000,47.3977508,8.5456073,-13.406501,-1.2149833,-6.405817,-2.805882e-05,0.0072953366,0.0,1.0670261,0.0851251,0.12428008,0.013776766,0.00071164995,-0.0002852638,-0.011124978,-1.1998819,-0.05357494,0.06172433,1.6415788,-0.0084544085,488.10086,6.53181,0.5002602,0.4629941,0.18030111,0.13267542,inf,inf,inf,inf,1,1,1,1,2,0,2,1,3,1,1,1,0,0
47184000,47184000,908000,47.3977508,8.5456073,-12.994653,-1.1695036,-6.40286,-2.805882e-05,0.0072953366,0.0,0.33365932,0.04424119,0.13046825,0.016444825,0.00071164995,-0.0002852638,-0.011124978,-1.7307484,-0.12186719,0.0009937211,1.6428195,-0.0084544085,488.10086,6.528853,0.46740255,0.45829588,0.16308251,0.12906468,inf,inf,inf,inf,1,1,1,1,2,0,2,1,3,1,1,1,0,0
47680000,47680000,908000,47.3977508,8.5456073,-12.998152,-1.155796,-6.3956904,-2.805882e-05,0.0072953366,0.0,-0.55486953,-0.027687127,0.12279113,0.010151263,0.00071164995,-0.0002852638,-0.011124978,-1.859323,-0.1577601,0.06048381,1.6429381,-0.0084544085,488.10086,6.521683,0.4771917,0.4582135,0.16870426,0.13003242,inf,inf,inf,inf,1,1,1,1,2,0,2,1,3,1,1,1,0,0
48184000,48184000,908000,47.3977508,8.5456073,-13.45335,-1.1792006,-6.386606,-2.805882e-05,0.0072953366,0.0,-1.4007115,-0.10151864,0.11716083,0.009748156,0.00071164995,-0.0002852638,-0.011124978,-1.5609727,-0.18347695,-0.012470408,1.6433719,-0.0084544085,488.10086,6.512599,0.4881251,0.46287298,0.17800081,0.13159317,inf,inf,inf,inf,1,1,1,1,2,0,2,1,3,1,1,1,0,0
48680000,48680000,908000,47.3977508,8.5456073,-14.270914,-1.2309015,-6.3761454,-2.805882e-05,0.0072953366,0.0,-1.9765908,-0.15846945,0.0990797,0.0012448581,0.00071164995,-0.0002852638,-0.011124978,-0.8001704,-0.11017175,-0.013567506,1.643325,-0.0084544085,488.10086,6.502138,0.49886453,0.46273252,0.18541871,0.13239269,inf,inf,inf,inf,1,1,1,1,2,0,2,1,3,1,1,1,0,0
49184000,49184000,908000,47.3977508,8.5456073,-15.318915,-1.3039263,-6.3751683,-2.805882e-05,0.0072953366,0.0,-2.1544194,-0.1843555,0.07807206,-0.014555303,0.00071164995,-0.0002852638,-0.011124978,0.09890575,-0.061465584,-0.024389474,1.6437844,-0.0084544085,488.10086,6.501161,0.46667266,0.4579079,0.1695293,0.12866585,inf,inf,inf,inf,1,1,1,1,2,0,2,1,3,1,1,1,0,0
49680000,49680000,908000,47.3977508,8.5456073,-16.347715,-1.380323,-6.3787403,-2.805882e-05,0.0072953366,0.0,-1.8920048,-0.17613003,0.081301786,-0.008529929,0.00071164995,-0.0002852638,-0.011124978,0.958683,0.06902626,0.033481974,1.6438096,-0.0084544085,488.10086,6.504733,0.4766432,0.4577059,0.16975287,0.12976561,inf,inf,inf,inf,1,1,1,1,2,0,2,1,3,1,1,1,0,0
50176000,50176000,908000,47.3977508,8.5456073,-17.156134,-1.4484705,-6.3776026,-2.805882e-05,0.0072953366,0.0,-1.2514483,-0.13607195,0.10188427,0.012162363,0.00071164995,-0.0002852638,-0.011124978,1.587257,0.12214617,0.0622943,1.6439053,-0.0084544085,488.10086,6.5035954,0.48719552,0.46167007,0.17139517,0.13145265,inf,inf,inf,inf,1,1,1,1,2,0,2,1,3,1,1,1,0,0
50680000,50680000,908000,47.3977508,8.5456073,-17.587137,-1.4956454,-6.375598,-2.805882e-05,0.0072953366,0.0,-0.3692483,-0.072839536,0.106070764,0.012516902,0.00071164995,-0.0002852638,-0.011124978,1.8422703,0.13336454,0.05360413,1.643791,-0.0084544085,488.10086,6.5015907,0.4989354,0.46237084,0.17839304,0.13260187,inf,inf,inf,inf,1,1,1,1,2,0,2,1,3,1,1,1,0,0
51184000,51184000,908000,47.3977508,8.5456073,-17.574053,-1.5107969,-6.3875947,-2.805882e-05,0.0072953366,0.0,0.5156983,-0.0026862028,0.10397698,-0.0023073188,0.00071164995,-0.0002852638,-0.011124978,1.621896,0.17990322,0.06993487,1.6433796,-0.0084544085,488.10086,6.5135875,0.46660766,0.45765665,0.17050217,0.12874398,inf,inf,inf,inf,1,1,1,1,2,0,2,1,3,1,1,1,0,0
51680000,51680000,908000,47.3977508,8.5456073,-17.156704,-1.4951855,-6.3955703,-2.805882e-05,0.0072953366,0.0,1.1799831,0.0588212,0.10686413,-0.0047936663,0.00071164995,-0.0002852638,-0.011124978,1.0478014,0.104388796,0.061087307,1.6423285,-0.0084544085,488.10086,6.521563,0.4766572,0.45775035,0.1788316,0.1296604,inf,inf,inf,inf,1,1,1,1,2,0,2,1,3,1,1,1,0,0
52184000,52184000,908000,47.3977508,8.5456073,-16.464758,-1.4530691,-6.3958306,-2.805882e-05,0.0072953366,0.0,1.4848571,0.09629899,0.100753784,-0.006673596,0.00071164995,-0.0002852638,-0.011124978,0.1607571,0.07478984,0.022881662,1.6420879,-0.0084544085,488.10086,6.5218234,0.48833823,0.46253,0.18307006,0.13139896,inf,inf,inf,inf,1,1,1,1,2,0,2,1,3,1,1,1,0,0
52680000,52680000,908000,47.3977508,8.5456073,-15.724084,-1.3990737,-6.3926387,-2.805882e-05,0.0072953366,0.0,1.3465053,0.09932501,0.100930355,0.0010509351,0.00071164995,-0.0002852638,-0.011124978,-0.72045225,-0.02523609,0.024720093,1.6415327,-0.0084544085,488.10086,6.5186315,0.4996488,0.46247414,0.18269742,0.13248394,inf,inf,inf,inf,1,1,1,1,2,0,2,1,3,1,1,1,0,0
53184000,53184000,908000,47.3977508,8.5456073,-15.119597,-1.3499607,-6.391721,-2.805882e-05,0.0072953366,0.0,0.79838973,0.06274485,0.117193446,0.016146788,0.00071164995,-0.0002852638,-0.011124978,-1.4572012,-0.13412477,0.043552365,1.6418322,-0.0084544085,488.10086,6.5177135,0.46708363,0.4576315,0.16403873,0.12888071,inf,inf,inf,inf,1,1,1,1,2,0,2,1,3,1,1,1,0,0
53680000,53680000,908000,47.3977508,8.5456073,-14.862516,-1.3315836,-6.378203,-2.805882e-05,0.0072953366,0.0,-0.01994898,0.001284517,0.1061168,0.010838935,0.00071164995,-0.0002852638,-0.011124978,-1.8511292,-0.15042989,0.032688487,1.6421676,-0.0084544085,488.10086,6.5041957,0.47713804,0.46143517,0.16685909,0.13045537,inf,inf,inf,inf,1,1,1,1,2,0,2,1,3,1,1,1,0,0
54184000,54184000,908000,47.3977508,8.5456073,-15.04648,-1.3381935,-6.3719807,-2.805882e-05,0.0072953366,0.0,-0.9241945,-0.06630098,0.1034321,0.010466966,0.00071164995,-0.0002852638,-0.011124978,-1.7716537,-0.16490506,0.023254192,1.6425446,-0.0084544085,488.10086,6.4979734,0.48810205,0.46201304,0.17405336,0.13149415,inf,inf,inf,inf,1,1,1,1,2,0,2,1,3,1,1,1,0,0
54680000,54680000,908000,47.3977508,8.5456073,-15.659871,-1.3768858,-6.360505,-2.805882e-05,0.0072953366,0.0,-1.6736403,-0.13074794,0.08956808,0.004684485,0.00071164995,-0.0002852638,-0.011124978,-1.2859368,-0.1046232,-0.027200205,1.6431619,-0.0084544085,488.10086,6.486498,0.4986871,0.461911,0.18223314,0.13228385,inf,inf,inf,inf,1,1,1,1,2,0,2,1,3,1,1,1,0,0
55184000,55184000,908000,47.3977508,8.5456073,-16.601524,-1.4391533,-6.359347,-2.805882e-05,0.0072953366,0.0,-2.0943646,-0.17169768,0.069085345,-0.01227296,0.00071164995,-0.0002852638,-0.011124978,-0.43226892,-0.029919457,-0.031124799,1.6435928,-0.0084544085,488.10086,6.4853396,0.4664932,0.45710942,0.16918883,0.12848414,inf,inf,inf,inf,1,1,1,1,2,0,2,1,3,1,1,1,0,0
55680000,55680000,908000,47.3977508,8.5456073,-17.649797,-1.5191143,-6.3644924,-2.805882e-05,0.0072953366,0.0,-2.07903,-0.18645848,0.061352983,-0.017726779,0.00071164995,-0.0002852638,-0.011124978,0.46922433,-0.019750483,0.056370158,1.6435708,-0.0084544085,488.10086,6.490485,0.47648224,0.45694086,0.1710721,0.12956056,inf,inf,inf,inf,1,1,1,1,2,0,2,1,3,1,1,1,0,0
56176000,56176000,908000,47.3977508,8.5456073,-18.596914,-1.5985786,-6.36999,-2.805882e-05,0.0072953366,0.0,-1.6350799,-0.16205493,0.082116716,0.0021929934,0.00071164995,-0.0002852638,-0.011124978,1.2860111,0.13595125,0.07304269,1.643565,-0.0084544085,488.10086,6.4959826,0.4870152,0.46088606,0.17189193,0.13128017,inf,inf,inf,inf,1,1,1,1,2,0,2,1,3,1,1,1,0,0
56680000,56680000,908000,47.3977508,8.5456073,-19.26015,-1.6622208,-6.3669195,-2.805882e-05,0.0072953366,0.0,-0.85560393,-0.106751956,0.099972285,0.017705342,0.00071164995,-0.0002852638,-0.011124978,1.7588315,0.15886094,-0.0052107493,1.6437109,-0.0084544085,488.10086,6.4929123,0.498732,0.46567068,0.17579153,0.1330994,inf,inf,inf,inf,1,1,1,1,2,0,2,1,3,1,1,1,0,0
57184000,57184000,908000,47.3977508,8.5456073,-19.501036,-1.6874245,-6.372834,-2.805882e-05,0.0072953366,0.0,0.06015708,-0.032586087,0.09991833,0.007855881,0.00071164995,-0.0002852638,-0.011124978,1.8491848,0.14110914,-0.04539266,1.6434612,-0.0084544085,488.10086,6.498827,0.46648082,0.45682445,0.16650416,0.1287102,inf,inf,inf,inf,1,1,1,1,2,0,2,1,3,1,1,1,0,0
57680000,57680000,908000,47.3977508,8.5456073,-19.292284,-1.6773152,-6.3647046,-2.805882e-05,0.0072953366,0.0,0.87584704,0.03813106,0.087950684,0.0029788355,0.00071164995,-0.0002852638,-0.011124978,1.4238352,0.11623218,-0.003846362,1.642795,-0.0084544085,488.10086,6.4906974,0.47643578,0.46055168,0.1756687,0.13007332,inf,inf,inf,inf,1,1,1,1,2,0,2,1,3,1,1,1,0,0
58184000,58184000,908000,47.3977508,8.5456073,-18.721924,-1.6531142,-6.367924,-2.805882e-05,0.0072953366,0.0,1.4152567,0.08262061,0.07560005,-0.010130257,0.00071164995,-0.0002852638,-0.011124978,0.6988534,0.051367704,0.014415941,1.6418744,-0.0084544085,488.10086,6.493917,0.4879964,0.46109936,0.18275914,0.13111158,inf,inf,inf,inf,1,1,1,1,2,0,2,1,3,1,1,1,0,0
58680000,58680000,908000,47.3977508,8.5456073,-17.985718,-1.608901,-6.3714175,-2.805882e-05,0.0072953366,0.0,1.5288051,0.10645759,0.07319177,-0.010151447,0.00071164995,-0.0002852638,-0.011124978,-0.20915891,0.019528713,-0.0013550742,1.6415282,-0.0084544085,488.10086,6.4974103,0.49933478,0.46491826,0.18491238,0.13263927,inf,inf,inf,inf,1,1,1,1,2,0,2,1,3,1,1,1,0,0
59184000,59184000,908000,47.3977508,8.5456073,-17.266582,-1.5666845,-6.3745217,-2.805882e-05,0.0072953366,0.0,1.204878,0.0929463,0.084644616,0.001791148,0.00071164995,-0.0002852638,-0.011124978,-1.0794086,-0.058303844,0.053746622,1.6413492,-0.0084544085,488.10086,6.5005145,0.46675825,0.45606443,0.1660645,0.12847777,inf,inf,inf,inf,1,1,1,1,2,0,2,1,3,1,1,1,0,0
59680000,59680000,908000,47.3977508,8.5456073,-16.809816,-1.5367738,-6.365788,-2.805882e-05,0.0072953366,0.0,0.5212088,0.053454358,0.095359474,0.015622305,0.00071164995,-0.0002852638,-0.011124978,-1.6457322,-0.09863898,-0.003505498,1.6414086,-0.0084544085,488.10086,6.4917808,0.47683123,0.45985863,0.16683646,0.13010177,inf,inf,inf,inf,1,1,1,1,2,0,2,1,3,1,1,1,0,0
60184000,60184000,908000,47.3977508,8.5456073,-16.749285,-1.526117,-6.3597736,-2.805882e-05,0.0072953366,0.0,-0.37259406,-0.011037816,0.087387614,0.008159619,0.00071164995,-0.0002852638,-0.011124978,-1.8485638,-0.13664782,0.02487283,1.6425989,-0.0084544085,488.10086,6.4857664,0.4879291,0.46438953,0.1714238,0.1317626,inf,inf,inf,inf,1,1,1,1,2,0,2,1,3,1,1,1,0,0
60680000,60680000,908000,47.3977508,8.5456073,-17.130758,-1.5456538,-6.351605,-2.805882e-05,0.0072953366,0.0,-1.2256801,-0.08112944,0.084274925,0.009484626,0.00071164995,-0.0002852638,-0.011124978,-1.5657091,-0.11437754,-0.004615634,1.6428902,-0.0084544085,488.10086,6.4775977,0.4984696,0.46417624,0.17862183,0.13256668,inf,inf,inf,inf,1,1,1,1,2,0,2,1,3,1,1,1,0,0
61184000,61184000,908000,47.3977508,8.5456073,-17.908878,-1.5978948,-6.3514123,-2.805882e-05,0.0072953366,0.0,-1.8521852,-0.13766679,0.06837664,-0.0061448915,0.00071164995,-0.0002852638,-0.011124978,-0.9159095,-0.059564993,-0.002942979,1.6430492,-0.0084544085,488.10086,6.477405,0.46648413,0.45918477,0.16771403,0.12870866,inf,inf,inf,inf,1,1,1,1,2,0,2,1,3,1,1,1,0,0
61680000,61680000,908000,47.3977508,8.5456073,-18.91935,-1.6747245,-6.351369,-2.805882e-05,0.0072953366,0.0,-2.0852213,-0.17077626,0.05601259,-0.013135135,0.00071164995,-0.0002852638,-0.011124978,0.007790571,-0.058991358,0.046348196,1.6432285,-0.0084544085,488.10086,6.4773617,0.47624955,0.4588252,0.17137662,0.12969838,inf,inf,inf,inf,1,1,1,1,2,0,2,1,3,1,1,1,0,0
62176000,62176000,908000,47.3977508,8.5456073,-19.948494,-1.7501475,-6.351198,-2.805882e-05,0.0072953366,0.0,-1.8753667,-0.16192552,0.054983895,-0.0077207666,0.00071164995,-0.0002852638,-0.011124978,0.8895817,0.05185806,0.030470079,1.6429693,-0.0084544085,488.10086,6.477191,0.48661214,0.46245536,0.17284402,0.13135616,inf,inf,inf,inf,1,1,1,1,2,0,2,1,3,1,1,1,0,0
62680000,62680000,908000,47.3977508,8.5456073,-20.797033,-1.8194244,-6.3422537,-2.805882e-05,0.0072953366,0.0,-1.2591844,-0.1283613,0.07292695,0.017374547,0.00071164995,-0.0002852638,-0.011124978,1.5795473,0.096858956,0.008407979,1.6429802,-0.0084544085,488.10086,6.4682465,0.49836162,0.46698,0.17522205,0.13322036,inf,inf,inf,inf,1,1,1,1,2,0,2,1,3,1,1,1,0,0
63184000,63184000,908000,47.3977508,8.5456073,-21.274393,-1.877865,-6.3369823,-2.805882e-05,0.0072953366,0.0,-0.39063928,-0.06907329,0.06619499,0.008730088,0.00071164995,-0.0002852638,-0.011124978,1.8926977,0.14844236,0.011261552,1.6426506,-0.0084544085,488.10086,6.462975,0.46623585,0.45782498,0.16394582,0.12886764,inf,inf,inf,inf,1,1,1,1,2,0,2,1,3,1,1,1,0,0
63680000,63680000,908000,47.3977508,8.5456073,-21.296864,-1.9030831,-6.335425,-2.805882e-05,0.0072953366,0.0,0.49986756,0.0039431727,0.0556319,-0.0016911484,0.00071164995,-0.0002852638,-0.011124978,1.7188278,0.15081877,0.017921438,1.6419026,-0.0084544085,488.10086,6.4614177,0.47629875,0.46144614,0.17245089,0.13027214,inf,inf,inf,inf,1,1,1,1,2,0,2,1,3,1,1,1,0,0
64184000,64184000,908000,47.3977508,8.5456073,-20.89586,-1.891811,-6.3339815,-2.805882e-05,0.0072953366,0.0,1.218065,0.07333127,0.048382863,-0.0059391335,0.00071164995,-0.0002852638,-0.011124978,1.1131288,0.14797741,0.019216908,1.6412091,-0.0084544085,488.10086,6.4599743,0.4877683,0.46195674,0.18097554,0.13126162,inf,inf,inf,inf,1,1,1,1,2,0,2,1,3,1,1,1,0,0
64680000,64680000,908000,47.3977508,8.5456073,-20.22334,-1.8533839,-6.334854,-2.805882e-05,0.0072953366,0.0,1.5693605,0.1197942,0.038105473,-0.011952958,0.00071164995,-0.0002852638,-0.011124978,0.2714513,0.063156806,0.009849667,1.6409934,-0.0084544085,488.10086,6.460847,0.49908033,0.46581385,0.18566962,0.13271368,inf,inf,inf,inf,1,1,1,1,2,0,2,1,3,1,1,1,0,0
65184000,65184000,908000,47.3977508,8.5456073,-19.455515,-1.8040905,-6.333069,-2.805882e-05,0.0072953366,0.0,1.4797794,0.13302936,0.035963796,-0.006651708,0.00071164995,-0.0002852638,-0.011124978,-0.59864265,0.013625336,-0.0060219313,1.6410958,-0.0084544085,488.10086,6.4590616,0.46669117,0.45706424,0.168021,0.12855808,inf,inf,inf,inf,1,1,1,1,2,0,2,1,3,1,1,1,0,0
65680000,65680000,908000,47.3977508,8.5456073,-18.82858,-1.7543403,-6.3205094,-2.805882e-05,0.0072953366,0.0,0.9768835,0.10780555,0.045989282,0.01387599,0.00071164995,-0.0002852638,-0.011124978,-1.3762258,-0.069022134,0.002434477,1.6416632,-0.0084544085,488.10086,6.446502,0.47684446,0.4571077,0.16829817,0.12973838,inf,inf,inf,inf,1,1,1,1,2,0,2,1,3,1,1,1,0,0
66184000,66184000,908000,47.3977508,8.5456073,-18.513783,-1.716032,-6.306384,-2.805882e-05,0.0072953366,0.0,0.16431238,0.05512955,0.03659759,0.010827365,0.00071164995,-0.0002852638,-0.011124978,-1.7872698,-0.13302004,-0.009377486,1.6427627,-0.0084544085,488.10086,6.432377,0.48806122,0.46179506,0.17087385,0.13152818,inf,inf,inf,inf,1,1,1,1,2,0,2,1,3,1,1,1,0,0
66680000,66680000,908000,47.3977508,8.5456073,-18.638134,-1.7147629,-6.295948,-2.805882e-05,0.0072953366,0.0,-0.7422303,-0.024762137,0.02497978,0.0054962966,0.00071164995,-0.0002852638,-0.011124978,-1.7654183,-0.13677016,-0.0074114646,1.6429611,-0.0084544085,488.10086,6.421941,0.49876487,0.46575665,0.17664331,0.13298915,inf,inf,inf,inf,1,1,1,1,2,0,2,1,3,1,1,1,0,0
67184000,67184000,908000,47.3977508,8.5456073,-19.193842,-1.7444911,-6.281201,-2.805882e-05,0.0072953366,0.0,-1.5344793,-0.091819845,0.0073991385,-0.00072271656,0.00071164995,-0.0002852638,-0.011124978,-1.3335698,-0.11105312,-0.028896144,1.6433908,-0.0084544085,488.10086,6.4071937,0.46667132,0.45682785,0.1664882,0.12853365,inf,inf,inf,inf,1,1,1,1,2,0,2,1,3,1,1,1,0,0
67680000,67680000,908000,47.3977508,8.5456073,-20.07632,-1.7981678,-6.280287,-2.805882e-05,0.0072953366,0.0,-2.0002742,-0.13330826,-0.010262661,-0.014646195,0.00071164995,-0.0002852638,-0.011124978,-0.5228264,-0.076121226,-0.016313976,1.6433725,-0.0084544085,488.10086,6.4062796,0.47636226,0.46058375,0.1717282,0.12998791,inf,inf,inf,inf,1,1,1,1,2,0,2,1,3,1,1,1,0,0
68184000,68184000,908000,47.3977508,8.5456073,-21.11119,-1.8650522,-6.2858534,-2.805882e-05,0.0072953366,0.0,-2.03605,-0.14885637,-0.015277847,-0.017891135,0.00071164995,-0.0002852638,-0.011124978,0.42243573,0.0043867473,0.009819864,1.6433216,-0.0084544085,488.10086,6.411846,0.48754725,0.46117285,0.17469786,0.13122177,inf,inf,inf,inf,1,1,1,1,2,0,2,1,3,1,1,1,0,0
68680000,68680000,908000,47.3977508,8.5456073,-22.045443,-1.9486258,-6.279897,-2.805882e-05,0.0072953366,0.0,-1.6317421,-0.13962105,-0.0024651736,0.0036274164,0.00071164995,-0.0002852638,-0.011124978,1.2275834,0.07292644,0.0076917927,1.6432333,-0.0084544085,488.10086,6.40589,0.4985473,0.46516132,0.17625226,0.1329308,inf,inf,inf,inf,1,1,1,1,2,0,2,1,3,1,1,1,0,0
69184000,69184000,908000,47.3977508,8.5456073,-22.715734,-2.0128062,-6.261062,-2.805882e-05,0.0072953366,0.0,-0.8767723,-0.08862536,-0.0037038256,0.013860412,0.00071164995,-0.0002852638,-0.011124978,1.7631958,0.09934938,-0.04926044,1.6425375,-0.0084544085,488.10086,6.387055,0.46634486,0.45633265,0.16269016,0.12870541,inf,inf,inf,inf,1,1,1,1,2,0,2,1,3,1,1,1,0,0
69680000,69680000,908000,47.3977508,8.5456073,-22.957846,-2.0506744,-6.2573767,-2.805882e-05,0.0072953366,0.0,0.02709793,-0.019143974,-0.018942835,-0.002609655,0.00071164995,-0.0002852638,-0.011124978,1.8859156,0.14242901,-0.03213342,1.6420732,-0.0084544085,488.10086,6.3833694,0.4762391,0.46022156,0.1691684,0.13020638,inf,inf,inf,inf,1,1,1,1,2,0,2,1,3,1,1,1,0,0
70184000,70184000,908000,47.3977508,8.5456073,-22.755457,-2.0563588,-6.2604923,-2.805882e-05,0.0072953366,0.0,0.8792757,0.048101813,-0.017169163,-0.0030273425,0.00071164995,-0.0002852638,-0.011124978,1.4986911,0.115887605,-0.0125719225,1.641528,-0.0084544085,488.10086,6.386485,0.48757833,0.46096963,0.17778003,0.13124615,inf,inf,inf,inf,1,1,1,1,2,0,2,1,3,1,1,1,0,0
70680000,70680000,908000,47.3977508,8.5456073,-22.18613,-2.019986,-6.2531743,-2.805882e-05,0.0072953366,0.0,1.4537547,0.10763049,-0.032994792,-0.010284934,0.00071164995,-0.0002852638,-0.011124978,0.8145103,0.10580982,-0.05100574,1.6413062,-0.0084544085,488.10086,6.379167,0.49875748,0.46506926,0.18452963,0.13269155,inf,inf,inf,inf,1,1,1,1,2,0,2,1,3,1,1,1,0,0
71184000,71184000,908000,47.3977508,8.5456073,-21.38945,-1.9641565,-6.2610607,-2.805882e-05,0.0072953366,0.0,1.6303976,0.13186416,-0.038082395,-0.016001066,0.00071164995,-0.0002852638,-0.011124978,-0.12691173,0.018629681,0.005983747,1.6411413,-0.0084544085,488.10086,6.3870535,0.46651208,0.4563157,0.16900626,0.12845838,inf,inf,inf,inf,1,1,1,1,2,0,2,1,3,1,1,1,0,0
71680000,71680000,908000,47.3977508,8.5456073,-20.624063,-1.9051094,-6.262238,-2.805882e-05,0.0072953366,0.0,1.3571684,0.12253214,-0.026932707,-0.0014019639,0.00071164995,-0.0002852638,-0.011124978,-0.9744058,-0.034417387,0.06930902,1.6413649,-0.0084544085,488.10086,6.388231,0.476677,0.4600808,0.16989377,0.13011508,inf,inf,inf,inf,1,1,1,1,2,0,2,1,3,1,1,1,0,0
72184000,72184000,908000,47.3977508,8.5456073,-20.076464,-1.8490404,-6.256032,-2.805882e-05,0.0072953366,0.0,0.6939034,0.07969698,-0.015053522,0.011895835,0.00071164995,-0.0002852638,-0.011124978,-1.6358415,-0.098394364,-0.010833143,1.6424608,-0.0084544085,488.10086,6.382025,0.48801684,0.46459177,0.17133775,0.13191995,inf,inf,inf,inf,1,1,1,1,2,0,2,1,3,1,1,1,0,0
72680000,72680000,908000,47.3977508,8.5456073,-19.921238,-1.8211678,-6.25758,-2.805882e-05,0.0072953366,0.0,-0.18018538,0.011354233,-0.01697238,0.0031378611,0.00071164995,-0.0002852638,-0.011124978,-1.859141,-0.1459543,0.02621114,1.6428517,-0.0084544085,488.10086,6.3835726,0.4986744,0.46425486,0.1751817,0.13280833,inf,inf,inf,inf,1,1,1,1,2,0,2,1,3,1,1,1,0,0
73184000,73184000,908000,47.3977508,8.5456073,-20.211298,-1.8227923,-6.255209,-2.805882e-05,0.0072953366,0.0,-1.0692091,-0.061433453,-0.0094973715,0.0098865265,0.00071164995,-0.0002852638,-0.011124978,-1.6497148,-0.17721525,-0.03511179,1.6432636,-0.0084544085,488.10086,6.3812017,0.4665928,0.4591568,0.1646287,0.12887174,inf,inf,inf,inf,1,1,1,1,2,0,2,1,3,1,1,1,0,0
73680000,73680000,908000,47.3977508,8.5456073,-20.899284,-1.8555998,-6.2481284,-2.805882e-05,0.0072953366,0.0,-1.7373748,-0.12279351,-0.028896537,-0.005078499,0.00071164995,-0.0002852638,-0.011124978,-1.0167326,-0.13537033,-0.06726104,1.643703,-0.0084544085,488.10086,6.374121,0.47626218,0.45881027,0.17084923,0.12969443,inf,inf,inf,inf,1,1,1,1,2,0,2,1,3,1,1,1,0,0
74184000,74184000,908000,47.3977508,8.5456073,-21.859848,-1.9184786,-6.250465,-2.805882e-05,0.0072953366,0.0,-2.033871,-0.16151938,-0.04074494,-0.014477078,0.00071164995,-0.0002852638,-0.011124978,-0.112191014,-0.056454696,-0.029756686,1.643424,-0.0084544085,488.10086,6.3764577,0.48738793,0.4632083,0.17540826,0.13135178,inf,inf,inf,inf,1,1,1,1,2,0,2,1,3,1,1,1,0,0
74680000,74680000,908000,47.3977508,8.5456073,-22.857641,-1.9905975,-6.262209,-2.805882e-05,0.0072953366,0.0,-1.8873265,-0.16069183,-0.038612258,-0.01653476,0.00071164995,-0.0002852638,-0.011124978,0.7614431,0.049644656,0.07892399,1.6430911,-0.0084544085,488.10086,6.3882017,0.49824643,0.46697628,0.17747474,0.13296354,inf,inf,inf,inf,1,1,1,1,2,0,2,1,3,1,1,1,0,0
75184000,75184000,908000,47.3977508,8.5456073,-23.692623,-2.0603411,-6.273437,-2.805882e-05,0.0072953366,0.0,-1.3210802,-0.12692326,-0.008673449,0.0045558796,0.00071164995,-0.0002852638,-0.011124978,1.4565123,0.100202374,0.067073844,1.643128,-0.0084544085,488.10086,6.39943,0.46615094,0.45781544,0.16252118,0.12873031,inf,inf,inf,inf,1,1,1,1,2,0,2,1,3,1,1,1,0,0
75680000,75680000,908000,47.3977508,8.5456073,-24.167284,-2.104377,-6.279992,-2.805882e-05,0.0072953366,0.0,-0.49361354,-0.066740744,0.009397154,0.011297775,0.00071164995,-0.0002852638,-0.011124978,1.8142824,0.11213758,0.07327552,1.6427578,-0.0084544085,488.10086,6.405985,0.4760558,0.46134728,0.16696872,0.1302356,inf,inf,inf,inf,1,1,1,1,2,0,2,1,3,1,1,1,0,0
76184000,76184000,908000,47.3977508,8.5456073,-24.192524,-2.121031,-6.2827377,-2.805882e-05,0.0072953366,0.0,0.42134982,0.0066574276,0.006111707,0.0027364492,0.00071164995,-0.0002852638,-0.011124978,1.7230431,0.18216379,0.012171454,1.6422672,-0.0084544085,488.10086,6.4087305,0.4874467,0.46162868,0.17469527,0.13125443,inf,inf,inf,inf,1,1,1,1,2,0,2,1,3,1,1,1,0,0
76680000,76680000,908000,47.3977508,8.5456073,-23.797112,-2.1090064,-6.284872,-2.805882e-05,0.0072953366,0.0,1.1648383,0.06742571,0.006869534,0.0011676245,0.00071164995,-0.0002852638,-0.011124978,1.2060266,0.11595446,-0.04754029,1.6416055,-0.0084544085,488.10086,6.410865,0.4984819,0.4653573,0.18234803,0.13262644,inf,inf,inf,inf,1,1,1,1,2,0,2,1,3,1,1,1,0,0
77184000,77184000,908000,47.3977508,8.5456073,-23.076689,-2.0672905,-6.27745,-2.805882e-05,0.0072953366,0.0,1.5861762,0.11284671,-0.009299771,-0.0061727385,0.00071164995,-0.0002852638,-0.011124978,0.4258362,0.03147882,-0.059601847,1.641378,-0.0084544085,488.10086,6.403443,0.46626082,0.45634782,0.16905442,0.12830769,inf,inf,inf,inf,1,1,1,1,2,0,2,1,3,1,1,1,0,0
77680000,77680000,908000,47.3977508,8.5456073,-22.259005,-2.0060704,-6.2828627,-2.805882e-05,0.0072953366,0.0,1.5644448,0.12623635,-0.01526609,-0.0122525785,0.00071164995,-0.0002852638,-0.011124978,-0.5185069,0.013968441,0.009073875,1.6415094,-0.0084544085,488.10086,6.4088554,0.47640395,0.4599027,0.17128177,0.12993103,inf,inf,inf,inf,1,1,1,1,2,0,2,1,3,1,1,1,0,0
78184000,78184000,908000,47.3977508,8.5456073,-21.54236,-1.9444816,-6.286354,-2.805882e-05,0.0072953366,0.0,1.1108953,0.0985705,0.004145958,0.005965981,0.00071164995,-0.0002852638,-0.011124978,-1.318175,-0.13684353,0.045692544,1.6418904,-0.0084544085,488.10086,6.412347,0.48783833,0.4642381,0.172565,0.13177991,inf,inf,inf,inf,1,1,1,1,2,0,2,1,3,1,1,1,0,0
78680000,78680000,908000,47.3977508,8.5456073,-21.140173,-1.91213,-6.296734,-2.805882e-05,0.0072953366,0.0,0.34418792,0.040762514,0.024010716,0.011660371,0.00071164995,-0.0002852638,-0.011124978,-1.8009715,-0.10821231,0.033864748,1.6424497,-0.0084544085,488.10086,6.4227266,0.4986098,0.46400118,0.17476988,0.13281569,inf,inf,inf,inf,1,1,1,1,2,0,2,1,3,1,1,1,0,0
79184000,79184000,908000,47.3977508,8.5456073,-21.15952,-1.9059942,-6.297267,-2.805882e-05,0.0072953366,0.0,-0.5663221,-0.02945239,0.028650336,0.011051593,0.00071164995,-0.0002852638,-0.011124978,-1.836128,-0.12134514,0.014984048,1.6429163,-0.0084544085,488.10086,6.4232597,0.46643513,0.45515406,0.16298528,0.12844051,inf,inf,inf,inf,1,1,1,1,2,0,2,1,3,1,1,1,0,0
79680000,79680000,908000,47.3977508,8.5456073,-21.615421,-1.9370297,-6.291087,-2.805882e-05,0.0072953366,0.0,-1.368148,-0.09722411,0.024710245,0.009456413,0.00071164995,-0.0002852638,-0.011124978,-1.4182218,-0.11408074,-0.024986451,1.6435109,-0.0084544085,488.10086,6.41708,0.4761332,0.4590916,0.1692236,0.12988082,inf,inf,inf,inf,1,1,1,1,2,0,2,1,3,1,1,1,0,0
80184000,80184000,908000,47.3977508,8.5456073,-22.42539,-1.9948623,-6.295132,-2.805882e-05,0.0072953366,0.0,-1.8823886,-0.14382,0.008364101,-0.0097328145,0.00071164995,-0.0002852638,-0.011124978,-0.64049673,-0.07114578,0.011649913,1.6435828,-0.0084544085,488.10086,6.421125,0.4872089,0.45995602,0.17502806,0.13101582,inf,inf,inf,inf,1,1,1,1,2,0,2,1,3,1,1,1,0,0
80680000,80680000,908000,47.3977508,8.5456073,-23.396729,-2.0739079,-6.3100805,-2.805882e-05,0.0072953366,0.0,-1.9730233,-0.16397457,0.012508423,-0.013011506,0.00071164995,-0.0002852638,-0.011124978,0.28417486,0.0059027947,0.017300246,1.6435473,-0.0084544085,488.10086,6.4360733,0.49803418,0.46403685,0.17820044,0.13262838,inf,inf,inf,inf,1,1,1,1,2,0,2,1,3,1,1,1,0,0
81184000,81184000,908000,47.3977508,8.5456073,-24.34778,-2.1527257,-6.3115625,-2.805882e-05,0.0072953366,0.0,-1.6238406,-0.14495815,0.019788526,-0.0029696021,0.00071164995,-0.0002852638,-0.011124978,1.1214315,0.10722102,-0.0050645317,1.6432425,-0.0084544085,488.10086,6.4375553,0.46611887,0.45553544,0.16315655,0.12857096,inf,inf,inf,inf,1,1,1,1,2,0,2,1,3,1,1,1,0,0
81680000,81680000,908000,47.3977508,8.5456073,-25.03046,-2.2119005,-6.312521,-2.805882e-05,0.0072953366,0.0,-0.9227337,-0.09893462,0.04033706,0.013212719,0.00071164995,-0.0002852638,-0.011124978,1.7339439,0.1265694,0.032054257,1.64294,-0.0084544085,488.10086,6.4385138,0.4760295,0.45948964,0.1663252,0.13023482,inf,inf,inf,inf,1,1,1,1,2,0,2,1,3,1,1,1,0,0
82184000,82184000,908000,47.3977508,8.5456073,-25.313248,-2.2438538,-6.3102946,-2.805882e-05,0.0072953366,0.0,-0.021662906,-0.030185865,0.039553728,0.009184258,0.00071164995,-0.0002852638,-0.011124978,1.8266914,0.18025519,0.0130627295,1.6425979,-0.0084544085,488.10086,6.4362874,0.48726493,0.46013507,0.17260724,0.13135286,inf,inf,inf,inf,1,1,1,1,2,0,2,1,3,1,1,1,0,0
82680000,82680000,908000,47.3977508,8.5456073,-25.156307,-2.2383556,-6.308391,-2.805882e-05,0.0072953366,0.0,0.83131427,0.0423431,0.037588466,0.0067255483,0.00071164995,-0.0002852638,-0.011124978,1.5661292,0.14363304,0.0024884937,1.6421151,-0.0084544085,488.10086,6.434384,0.49822104,0.46397924,0.18038516,0.13269448,inf,inf,inf,inf,1,1,1,1,2,0,2,1,3,1,1,1,0,0
83184000,83184000,908000,47.3977508,8.5456073,-24.599882,-2.1990645,-6.315321,-2.805882e-05,0.0072953366,0.0,1.4585831,0.10287875,0.027472608,-0.009614882,0.00071164995,-0.0002852638,-0.011124978,0.9070854,0.096236974,-0.0046938653,1.641426,-0.0084544085,488.10086,6.4413137,0.46621317,0.45894748,0.1689149,0.12877686,inf,inf,inf,inf,1,1,1,1,2,0,2,1,3,1,1,1,0,0
83680000,83680000,908000,47.3977508,8.5456073,-23.833769,-2.134995,-6.336705,-2.805882e-05,0.0072953366,0.0,1.6731162,0.1339156,0.03461649,-0.01614853,0.00071164995,-0.0002852638,-0.011124978,0.026610563,0.02165159,0.071081325,1.6415361,-0.0084544085,488.10086,6.462698,0.4764481,0.4625676,0.17261778,0.13027327,inf,inf,inf,inf,1,1,1,1,2,0,2,1,3,1,1,1,0,0
84184000,84184000,908000,47.3977508,8.5456073,-23.037222,-2.061908,-6.352467,-2.805882e-05,0.0072953366,0.0,1.4460859,0.1252213,0.05664983,-0.0025545666,0.00071164995,-0.0002852638,-0.011124978,-0.9080955,-0.077900834,0.07008574,1.6418291,-0.0084544085,488.10086,6.47846,0.48793083,0.46286356,0.17430441,0.13148661,inf,inf,inf,inf,1,1,1,1,2,0,2,1,3,1,1,1,0,0
84680000,84680000,908000,47.3977508,8.5456073,-22.447845,-2.00436,-6.344571,-2.805882e-05,0.0072953366,0.0,0.8337581,0.08100785,0.076157644,0.021564327,0.00071164995,-0.0002852638,-0.011124978,-1.5516703,-0.11836641,0.020870006,1.6419288,-0.0084544085,488.10086,6.470564,0.49880543,0.46646956,0.17550811,0.13305855,inf,inf,inf,inf,1,1,1,1,2,0,2,1,3,1,1,1,0,0
85184000,85184000,908000,47.3977508,8.5456073,-22.21648,-1.9870262,-6.3382664,-2.805882e-05,0.0072953366,0.0,-0.02899198,0.011460298,0.0684537,0.012529235,0.00071164995,-0.0002852638,-0.011124978,-1.8295689,-0.10831922,0.0026272608,1.6419915,-0.0084544085,488.10086,6.464259,0.46653503,0.45719385,0.16215293,0.12865573,inf,inf,inf,inf,1,1,1,1,2,0,2,1,3,1,1,1,0,0
85680000,85680000,908000,47.3977508,8.5456073,-22.427351,-1.9995241,-6.3315725,-2.805882e-05,0.0072953366,0.0,-0.9069752,-0.05995245,0.06421136,0.010863099,0.00071164995,-0.0002852638,-0.011124978,-1.696938,-0.13632357,-0.019095836,1.6427269,-0.0084544085,488.10086,6.4575653,0.47627267,0.46083096,0.16766544,0.13005969,inf,inf,inf,inf,1,1,1,1,2,0,2,1,3,1,1,1,0,0
86184000,86184000,908000,47.3977508,8.5456073,-23.06006,-2.0449476,-6.3203583,-2.805882e-05,0.0072953366,0.0,-1.6123289,-0.12065713,0.04668764,0.0019697547,0.00071164995,-0.0002852638,-0.011124978,-1.084201,-0.073072724,-0.039237548,1.643129,-0.0084544085,488.10086,6.446351,0.48729193,0.46119058,0.17410228,0.13105664,inf,inf,inf,inf,1,1,1,1,2,0,2,1,3,1,1,1,0,0
86680000,86680000,908000,47.3977508,8.5456073,-23.966747,-2.1114693,-6.3162575,-2.805882e-05,0.0072953366,0.0,-1.9484591,-0.15606704,0.027604764,-0.01016227,0.00071164995,-0.0002852638,-0.011124978,-0.2522423,-0.04045954,-0.041082498,1.643324,-0.0084544085,488.10086,6.4422503,0.4981856,0.46484002,0.17875533,0.13253671,inf,inf,inf,inf,1,1,1,1,2,0,2,1,3,1,1,1,0,0
87184000,87184000,908000,47.3977508,8.5456073,-24.966637,-2.193331,-6.322946,-2.805882e-05,0.0072953366,0.0,-1.8401309,-0.1603293,0.022276111,-0.015350049,0.00071164995,-0.0002852638,-0.011124978,0.66507065,0.030811206,0.00464078,1.6430172,-0.0084544085,488.10086,6.448939,0.4662254,0.45965603,0.16412832,0.12888847,inf,inf,inf,inf,1,1,1,1,2,0,2,1,3,1,1,1,0,0
87680000,87680000,908000,47.3977508,8.5456073,-25.806923,-2.2737055,-6.330461,-2.805882e-05,0.0072953366,0.0,-1.318423,-0.13140999,0.046176165,0.0044383258,0.00071164995,-0.0002852638,-0.011124978,1.424516,0.09387773,0.10864436,1.6429007,-0.0084544085,488.10086,6.456454,0.47611704,0.45926914,0.16656019,0.13003092,inf,inf,inf,inf,1,1,1,1,2,0,2,1,3,1,1,1,0,0
88184000,88184000,908000,47.3977508,8.5456073,-26.322983,-2.3341005,-6.336618,-2.805882e-05,0.0072953366,0.0,-0.49263975,-0.069638215,0.06361521,0.010946536,0.00071164995,-0.0002852638,-0.011124978,1.8625824,0.18177648,0.019925645,1.6424583,-0.0084544085,488.10086,6.4626107,0.48733637,0.4636196,0.17124146,0.13178465,inf,inf,inf,inf,1,1,1,1,2,0,2,1,3,1,1,1,0,0
88680000,88680000,908000,47.3977508,8.5456073,-26.396366,-2.3597655,-6.331942,-2.805882e-05,0.0072953366,0.0,0.42076224,0.006896148,0.061941635,0.0097747985,0.00071164995,-0.0002852638,-0.011124978,1.814345,0.1906486,-0.029234214,1.6418447,-0.0084544085,488.10086,6.457935,0.49821228,0.4672729,0.17818885,0.13318378,inf,inf,inf,inf,1,1,1,1,2,0,2,1,3,1,1,1,0,0
89184000,89184000,908000,47.3977508,8.5456073,-26.041395,-2.349338,-6.3324347,-2.805882e-05,0.0072953366,0.0,1.209753,0.07472074,0.051491275,-0.0020733506,0.00071164995,-0.0002852638,-0.011124978,1.3412107,0.15424292,-0.0028787178,1.6412995,-0.0084544085,488.10086,6.4584274,0.46612084,0.45798993,0.16779399,0.12863582,inf,inf,inf,inf,1,1,1,1,2,0,2,1,3,1,1,1,0,0
89680000,89680000,908000,47.3977508,8.5456073,-25.367691,-2.3068516,-6.3305902,-2.805882e-05,0.0072953366,0.0,1.6680299,0.1251483,0.042787716,-0.0055164658,0.00071164995,-0.0002852638,-0.011124978,0.54635674,0.10252573,-0.034397464,1.6410888,-0.0084544085,488.10086,6.456583,0.4761803,0.46141177,0.17300045,0.13001135,inf,inf,inf,inf,1,1,1,1,2,0,2,1,3,1,1,1,0,0
90184000,90184000,908000,47.3977508,8.5456073,-24.538233,-2.2412734,-6.3284183,-2.805882e-05,0.0072953366,0.0,1.7025899,0.1434459,0.031437166,-0.009583723,0.00071164995,-0.0002852638,-0.011124978,-0.347697,-0.002480141,0.010605901,1.641216,-0.0084544085,488.10086,6.454411,0.48783174,0.4656315,0.17613189,0.13171785,inf,inf,inf,inf,1,1,1,1,2,0,2,1,3,1,1,1,0,0
90680000,90680000,908000,47.3977508,8.5456073,-23.795624,-2.1762922,-6.324587,-2.805882e-05,0.0072953366,0.0,1.3026943,0.121145196,0.043450523,0.008436574,0.00071164995,-0.0002852638,-0.011124978,-1.1643254,-0.06030101,-0.0031674278,1.6412493,-0.0084544085,488.10086,6.4505796,0.4989958,0.46503788,0.17736103,0.13273247,inf,inf,inf,inf,1,1,1,1,2,0,2,1,3,1,1,1,0,0
91184000,91184000,908000,47.3977508,8.5456073,-23.314766,-2.1288605,-6.3151083,-2.805882e-05,0.0072953366,0.0,0.55814123,0.06571429,0.047536556,0.015229867,0.00071164995,-0.0002852638,-0.011124978,-1.7094554,-0.14870694,-0.001964159,1.6420313,-0.0084544085,488.10086,6.441101,0.46662015,0.45971206,0.16237822,0.12895864,inf,inf,inf,inf,1,1,1,1,2,0,2,1,3,1,1,1,0,0
91680000,91680000,908000,47.3977508,8.5456073,-23.251152,-2.1112444,-6.3075113,-2.805882e-05,0.0072953366,0.0,-0.3338915,-0.0081800455,0.034932695,0.0051894453,0.00071164995,-0.0002852638,-0.011124978,-1.8245257,-0.16120319,0.021597369,1.642426,-0.0084544085,488.10086,6.433504,0.4764511,0.4591546,0.16674697,0.1298486,inf,inf,inf,inf,1,1,1,1,2,0,2,1,3,1,1,1,0,0
92184000,92184000,908000,47.3977508,8.5456073,-23.635561,-2.1178648,-6.3008475,-2.805882e-05,0.0072953366,0.0,-1.1743573,-0.07921828,0.030888207,0.005662573,0.00071164995,-0.0002852638,-0.011124978,-1.4736688,-0.16040838,-0.02841465,1.6427544,-0.0084544085,488.10086,6.4268403,0.4494447,0.45453355,0.1577982,0.1262676,inf,inf,inf,inf,1,1,1,1,2,0,2,1,3,1,1,1,0,0
92680000,92680000,908000,47.3977508,8.5456073,-24.376444,-2.1555731,-6.2841463,-2.805882e-05,0.0072953366,0.0,-1.7355216,-0.13439499,0.0033531743,-0.0060111647,0.00071164995,-0.0002852638,-0.011124978,-0.77070785,-0.0946181,-0.0434434,1.6431742,-0.0084544085,488.10086,6.410139,0.46081418,0.4583182,0.16472818,0.12811889,inf,inf,inf,inf,1,1,1,1,2,0,2,1,3,1,1,1,0,0
93184000,93184000,908000,47.3977508,8.5456073,-25.335142,-2.2214322,-6.2833586,-2.805882e-05,0.0072953366,0.0,-1.8969473,-0.16437615,-0.014214259,-0.01769543,0.00071164995,-0.0002852638,-0.011124978,0.15802221,-0.0047168285,0.002714805,1.6429911,-0.0084544085,488.10086,6.4093513,0.47371435,0.45907244,0.1700335,0.12975422,inf,inf,inf,inf,1,1,1,1,2,0,2,1,3,1,1,1,0,0
93680000,93680000,908000,47.3977508,8.5456073,-26.255297,-2.2911444,-6.2883053,-2.805882e-05,0.0072953366,0.0,-1.6165864,-0.15564501,-0.0041370825,-0.0068130326,0.00071164995,-0.0002852638,-0.011124978,1.0086135,0.048694126,0.060699876,1.6428287,-0.0084544085,488.10086,6.414298,0.48637843,0.45924345,0.17343032,0.13125971,inf,inf,inf,inf,1,1,1,1,2,0,2,1,3,1,1,1,0,0
94184000,94184000,908000,47.3977508,8.5456073,-26.955133,-2.3444633,-6.2782054,-2.805882e-05,0.0072953366,0.0,-0.95258325,-0.11200617,0.015489599,0.018748833,0.00071164995,-0.0002852638,-0.011124978,1.6168025,0.11550882,-0.031913627,1.6423789,-0.0084544085,488.10086,6.404198,0.45830914,0.4550709,0.16100997,0.12807229,inf,inf,inf,inf,1,1,1,1,2,0,2,1,3,1,1,1,0,0
94680000,94680000,908000,47.3977508,8.5456073,-27.253073,-2.3741133,-6.2608833,-2.805882e-05,0.0072953366,0.0,-0.08372077,-0.04782447,-0.0050763804,0.0073935585,0.00071164995,-0.0002852638,-0.011124978,1.8691941,0.1029013,-0.07930118,1.6422573,-0.0084544085,488.10086,6.386876,0.46943787,0.45540157,0.16668732,0.12933093,inf,inf,inf,inf,1,1,1,1,2,0,2,1,3,1,1,1,0,0
95184000,95184000,908000,47.3977508,8.5456073,-27.089827,-2.3710876,-6.261052,-2.805882e-05,0.0072953366,0.0,0.79936665,0.023418067,-0.015851302,-0.0050849905,0.00071164995,-0.0002852638,-0.011124978,1.5840164,0.09615179,-0.008797272,1.6416259,-0.0084544085,488.10086,6.387045,0.48187175,0.46034765,0.17432421,0.13110156,inf,inf,inf,inf,1,1,1,1,2,0,2,1,3,1,1,1,0,0
95680000,95680000,908000,47.3977508,8.5456073,-26.531368,-2.3306868,-6.26897,-2.805882e-05,0.0072953366,0.0,1.4478248,0.08556947,-0.01702393,-0.011669871,0.00071164995,-0.0002852638,-0.011124978,0.98429495,0.09482118,-0.024364328,1.641397,-0.0084544085,488.10086,6.394963,0.4939692,0.46060875,0.18097049,0.13207652,inf,inf,inf,inf,1,1,1,1,2,0,2,1,3,1,1,1,0,0
96184000,96184000,908000,47.3977508,8.5456073,-25.702108,-2.2656183,-6.2682195,-2.805882e-05,0.0072953366,0.0,1.7282369,0.11953149,-0.027461322,-0.016613726,0.00071164995,-0.0002852638,-0.011124978,0.10330311,0.03605033,-0.002642162,1.6413419,-0.0084544085,488.10086,6.3942122,0.463239,0.45620298,0.16717097,0.1284893,inf,inf,inf,inf,1,1,1,1,2,0,2,1,3,1,1,1,0,0
96680000,96680000,908000,47.3977508,8.5456073,-24.8338,-2.1979373,-6.282021,-2.805882e-05,0.0072953366,0.0,1.56384,0.11647744,-0.018627135,-0.014253823,0.00071164995,-0.0002852638,-0.011124978,-0.82647353,-0.09281777,0.0722045,1.6411382,-0.0084544085,488.10086,6.408014,0.4739776,0.45637307,0.16924103,0.12972763,inf,inf,inf,inf,1,1,1,1,2,0,2,1,3,1,1,1,0,0
97176000,97176000,908000,47.3977508,8.5456073,-24.14089,-2.1412663,-6.2765765,-2.805882e-05,0.0072953366,0.0,0.9943894,0.08047911,0.006268913,0.015152423,0.00071164995,-0.0002852638,-0.011124978,-1.5228382,-0.1345716,-0.017059965,1.641336,-0.0084544085,488.10086,6.4025693,0.48496717,0.4605126,0.17090268,0.13150238,inf,inf,inf,inf,1,1,1,1,2,0,2,1,3,1,1,1,0,0
97680000,97680000,908000,47.3977508,8.5456073,-23.792788,-2.1114166,-6.269757,-2.805882e-05,0.0072953366,0.0,0.14077112,0.016954875,0.0004742748,0.008878262,0.00071164995,-0.0002852638,-0.011124978,-1.8760712,-0.10507709,-0.005608424,1.6424118,-0.0084544085,488.10086,6.3957496,0.49703038,0.46537858,0.17465135,0.1333009,inf,inf,inf,inf,1,1,1,1,2,0,2,1,3,1,1,1,0,0
98184000,98184000,908000,47.3977508,8.5456073,-23.86428,-2.1073635,-6.2588167,-2.805882e-05,0.0072953366,0.0,-0.76569504,-0.052387014,-0.010421904,0.005074203,0.00071164995,-0.0002852638,-0.011124978,-1.8112521,-0.1805952,-0.023613682,1.6427287,-0.0084544085,488.10086,6.3848095,0.46798342,0.4568944,0.16546921,0.1292422,inf,inf,inf,inf,1,1,1,1,2,0,2,1,3,1,1,1,0,0
98680000,98680000,908000,47.3977508,8.5456073,-24.385399,-2.145875,-6.248892,-2.805882e-05,0.0072953366,0.0,-1.5137268,-0.12104416,-0.025863566,-0.0029089167,0.00071164995,-0.0002852638,-0.011124978,-1.284975,-0.1326376,-0.069159076,1.6429821,-0.0084544085,488.10086,6.3748846,0.48080623,0.46107477,0.17326736,0.13096206,inf,inf,inf,inf,1,1,1,1,2,0,2,1,3,1,1,1,0,0
99184000,99184000,908000,47.3977508,8.5456073,-25.224092,-2.213288,-6.2519174,-2.805882e-05,0.0072953366,0.0,-1.9225403,-0.16302644,-0.037796132,-0.013977969,0.00071164995,-0.0002852638,-0.011124978,-0.43865156,-0.057235736,-0.017245298,1.6427917,-0.0084544085,488.10086,6.37791,0.4545147,0.45307535,0.16296828,0.12711093,inf,inf,inf,inf,1,1,1,1,2,0,2,1,3,1,1,1,0,0
99680000,99680000,908000,47.3977508,8.5456073,-26.146883,-2.293247,-6.2588673,-2.805882e-05,0.0072953366,0.0,-1.8857918,-0.17143774,-0.04136843,-0.017455317,0.00071164995,-0.0002852638,-0.011124978,0.48992535,0.019021768,-0.00412669,1.6429687,-0.0084544085,488.10086,6.38486,0.46589237,0.45718265,0.16651802,0.12895149,inf,inf,inf,inf,1,1,1,1,2,0,2,1,3,1,1,1,0,0
100184000,100184000,908000,47.3977508,8.5456073,-26.97604,-2.377461,-6.273464,-2.805882e-05,0.0072953366,0.0,-1.4192625,-0.15077072,-0.014683366,7.307032e-05,0.00071164995,-0.0002852638,-0.011124978,1.2654648,0.08070953,0.10565295,1.6426039,-0.0084544085,488.10086,6.399457,0.47856078,0.45821255,0.16961442,0.13047567,inf,inf,inf,inf,1,1,1,1,2,0,2,1,3,1,1,1,0,0
100680000,100680000,908000,47.3977508,8.5456073,-27.489618,-2.4309251,-6.270505,-2.805882e-05,0.0072953366,0.0,-0.64346236,-0.09040551,0.0035705739,0.015732564,0.00071164995,-0.0002852638,-0.011124978,1.7843903,0.13671924,0.020223668,1.6419419,-0.0084544085,488.10086,6.3964977,0.49068815,0.46250966,0.17367777,0.13224399,inf,inf,inf,inf,1,1,1,1,2,0,2,1,3,1,1,1,0,0
101184000,101184000,908000,47.3977508,8.5456073,-27.57428,-2.448296,-6.265493,-2.805882e-05,0.0072953366,0.0,0.27681798,-0.0170368,-0.009299869,0.0024429443,0.00071164995,-0.0002852638,-0.011124978,1.7668402,0.13549815,-0.010417773,1.6417273,-0.0084544085,488.10086,6.3914857,0.46092826,0.45412564,0.163237,0.12805592,inf,inf,inf,inf,1,1,1,1,2,0,2,1,3,1,1,1,0,0
101680000,101680000,908000,47.3977508,8.5456073,-27.219648,-2.4229908,-6.272723,-2.805882e-05,0.0072953366,0.0,1.0800012,0.05519406,-0.0054553906,-0.0013761183,0.00071164995,-0.0002852638,-0.011124978,1.3916382,0.1098439,0.036494803,1.641456,-0.0084544085,488.10086,6.398716,0.4746585,0.4584678,0.17222188,0.12998495,inf,inf,inf,inf,1,1,1,1,2,0,2,1,3,1,1,1,0,0
102184000,102184000,908000,47.3977508,8.5456073,-26.511631,-2.36955,-6.275844,-2.805882e-05,0.0072953366,0.0,1.5939326,0.10162858,-0.010985614,-0.007185877,0.00071164995,-0.0002852638,-0.011124978,0.5792537,0.079503424,-0.032628883,1.6414621,-0.0084544085,488.10086,6.401837,0.4502456,0.45085853,0.16321254,0.12643187,inf,inf,inf,inf,1,1,1,1,2,0,2,1,3,1,1,1,0,0
102680000,102680000,908000,47.3977508,8.5456073,-25.647186,-2.2950685,-6.2736406,-2.805882e-05,0.0072953366,0.0,1.6841375,0.120274775,-0.020457694,-0.009517522,0.00071164995,-0.0002852638,-0.011124978,-0.32003942,-0.008933537,-0.027686356,1.6410915,-0.0084544085,488.10086,6.3996334,0.46237388,0.45505908,0.16744813,0.12846737,inf,inf,inf,inf,1,1,1,1,2,0,2,1,3,1,1,1,0,0
103184000,103184000,908000,47.3977508,8.5456073,-24.8172,-2.2152145,-6.270696,-2.805882e-05,0.0072953366,0.0,1.3323547,0.10252734,-0.01493558,0.0018550492,0.00071164995,-0.0002852638,-0.011124978,-1.1239985,-0.121655345,0.007949769,1.6415893,-0.0084544085,488.10086,6.396689,0.47574598,0.4562192,0.17035395,0.13020314,inf,inf,inf,inf,1,1,1,1,2,0,2,1,3,1,1,1,0,0
103680000,103680000,908000,47.3977508,8.5456073,-24.269415,-2.1496263,-6.263735,-2.805882e-05,0.0072953366,0.0,0.6192285,0.04824323,-0.004270088,0.013894995,0.00071164995,-0.0002852638,-0.011124978,-1.7259381,-0.1234688,0.0019045545,1.6423484,-0.0084544085,488.10086,6.3897276,0.48841667,0.46060807,0.17320305,0.13215229,inf,inf,inf,inf,1,1,1,1,2,0,2,1,3,1,1,1,0,0
104184000,104184000,908000,47.3977508,8.5456073,-24.112131,-2.1130517,-6.262615,-2.805882e-05,0.0072953366,0.0,-0.28641012,-0.029552815,-0.0069840304,0.006819848,0.00071164995,-0.0002852638,-0.011124978,-1.9472841,-0.21873188,0.008339061,1.642263,-0.0084544085,488.10086,6.388608,0.45943427,0.45635146,0.16147429,0.12860551,inf,inf,inf,inf,1,1,1,1,2,0,2,1,3,1,1,1,0,0
104680000,104680000,908000,47.3977508,8.5456073,-24.404856,-2.1189077,-6.257126,-2.805882e-05,0.0072953366,0.0,-1.1465973,-0.10491859,-0.011179446,0.0046155457,0.00071164995,-0.0002852638,-0.011124978,-1.6224623,-0.19276553,-0.05718227,1.6424787,-0.0084544085,488.10086,6.3831186,0.4703089,0.4566469,0.16731742,0.12961352,inf,inf,inf,inf,1,1,1,1,2,0,2,1,3,1,1,1,0,0
105184000,105184000,908000,47.3977508,8.5456073,-25.091246,-2.1654255,-6.2616863,-2.805882e-05,0.0072953366,0.0,-1.7683406,-0.16894451,-0.018816803,-0.0065495498,0.00071164995,-0.0002852638,-0.011124978,-0.9122734,-0.08713203,0.030507332,1.6425707,-0.0084544085,488.10086,6.387679,0.48236635,0.45773876,0.17331447,0.13075244,inf,inf,inf,inf,1,1,1,1,2,0,2,1,3,1,1,1,0,0
105680000,105680000,908000,47.3977508,8.5456073,-25.992184,-2.2376833,-6.2690973,-2.805882e-05,0.0072953366,0.0,-1.9850264,-0.19810645,-0.026457984,-0.0153292,0.00071164995,-0.0002852638,-0.011124978,0.0030347144,-0.04960019,0.02539344,1.642681,-0.0084544085,488.10086,6.39509,0.49399334,0.46218678,0.17730351,0.13236731,inf,inf,inf,inf,1,1,1,1,2,0,2,1,3,1,1,1,0,0
106184000,106184000,908000,47.3977508,8.5456073,-26.92488,-2.311138,-6.2743254,-2.805882e-05,0.0072953366,0.0,-1.7579889,-0.1930177,-0.024286855,-0.012010561,0.00071164995,-0.0002852638,-0.011124978,0.85252684,-0.041200675,0.06430409,1.642543,-0.0084544085,488.10086,6.400318,0.46309483,0.45399997,0.1628324,0.12828995,inf,inf,inf,inf,1,1,1,1,2,0,2,1,3,1,1,1,0,0
106680000,106680000,908000,47.3977508,8.5456073,-27.646305,-2.3712783,-6.2824574,-2.805882e-05,0.0072953366,0.0,-1.143455,-0.15099488,0.0050386535,0.009699669,0.00071164995,-0.0002852638,-0.011124978,1.5026021,0.11806557,0.059297305,1.6424137,-0.0084544085,488.10086,6.40845,0.47346967,0.45810834,0.1657051,0.12996547,inf,inf,inf,inf,1,1,1,1,2,0,2,1,3,1,1,1,0,0
107184000,107184000,908000,47.3977508,8.5456073,-28.006659,-2.4056442,-6.282814,-2.805882e-05,0.0072953366,0.0,-0.2722384,-0.08619884,0.012359529,0.010779706,0.00071164995,-0.0002852638,-0.011124978,1.84126,0.11185112,0.03439467,1.6421858,-0.0084544085,488.10086,6.408807,0.48506823,0.4589869,0.17088184,0.13114467,inf,inf,inf,inf,1,1,1,1,2,0,2,1,3,1,1,1,0,0
107680000,107680000,908000,47.3977508,8.5456073,-27.914585,-2.4081657,-6.281569,-2.805882e-05,0.0072953366,0.0,0.6185128,-0.014145075,0.009273993,0.006012511,0.00071164995,-0.0002852638,-0.011124978,1.6588567,0.1302442,-0.0042840834,1.6417335,-0.0084544085,488.10086,6.407562,0.49624655,0.46307334,0.17765027,0.13254806,inf,inf,inf,inf,1,1,1,1,2,0,2,1,3,1,1,1,0,0
108184000,108184000,908000,47.3977508,8.5456073,-27.407942,-2.3771162,-6.2775044,-2.805882e-05,0.0072953366,0.0,1.3289229,0.050462633,-0.00067001325,-0.00086125097,0.00071164995,-0.0002852638,-0.011124978,1.0182931,0.087607734,-0.037799586,1.6414658,-0.0084544085,488.10086,6.403497,0.4644794,0.458229,0.16645922,0.12861359,inf,inf,inf,inf,1,1,1,1,2,0,2,1,3,1,1,1,0,0
108680000,108680000,908000,47.3977508,8.5456073,-26.630009,-2.3193834,-6.278082,-2.805882e-05,0.0072953366,0.0,1.670165,0.091952346,-0.014454069,-0.01191613,0.00071164995,-0.0002852638,-0.011124978,0.19499268,0.040304843,-0.013826414,1.6412205,-0.0084544085,488.10086,6.4040747,0.47454965,0.45802435,0.17086309,0.12952524,inf,inf,inf,inf,1,1,1,1,2,0,2,1,3,1,1,1,0,0
109184000,109184000,908000,47.3977508,8.5456073,-25.767033,-2.250817,-6.280841,-2.805882e-05,0.0072953366,0.0,1.5652943,0.094051056,-0.014444012,-0.0087619005,0.00071164995,-0.0002852638,-0.011124978,-0.70047545,-0.049763605,0.005913898,1.6412784,-0.0084544085,488.10086,6.4068336,0.48598477,0.46258074,0.17358127,0.13131346,inf,inf,inf,inf,1,1,1,1,2,0,2,1,3,1,1,1,0,0
109680000,109680000,908000,47.3977508,8.5456073,-25.063456,-2.1895933,-6.2791047,-2.805882e-05,0.0072953366,0.0,1.0439415,0.05968086,0.0041764122,0.010980664,0.00071164995,-0.0002852638,-0.011124978,-1.434845,-0.14454345,0.06320979,1.6415989,-0.0084544085,488.10086,6.4050975,0.49702355,0.4624514,0.1753302,0.13240741,inf,inf,inf,inf,1,1,1,1,2,0,2,1,3,1,1,1,0,0
110184000,110184000,908000,47.3977508,8.5456073,-24.674786,-2.1517563,-6.273408,-2.805882e-05,0.0072953366,0.0,0.22265151,-0.00079996575,0.006877399,0.012562349,0.00071164995,-0.0002852638,-0.011124978,-1.860562,-0.15250398,-0.035505738,1.6418283,-0.0084544085,488.10086,6.3994007,0.46493402,0.45754108,0.16142675,0.12865093,inf,inf,inf,inf,1,1,1,1,2,0,2,1,3,1,1,1,0,0
110680000,110680000,908000,47.3977508,8.5456073,-24.719967,-2.1461825,-6.268627,-2.805882e-05,0.0072953366,0.0,-0.6798062,-0.06994458,0.0055273566,0.011136595,0.00071164995,-0.0002852638,-0.011124978,-1.835578,-0.18523285,0.015079043,1.6424205,-0.0084544085,488.10086,6.39462,0.4746826,0.46133876,0.1662627,0.13008676,inf,inf,inf,inf,1,1,1,1,2,0,2,1,3,1,1,1,0,0
111184000,111184000,908000,47.3977508,8.5456073,-25.221186,-2.1777003,-6.261786,-2.805882e-05,0.0072953366,0.0,-1.4762574,-0.13638337,-0.005110276,0.0033638875,0.00071164995,-0.0002852638,-0.011124978,-1.3410702,-0.16329673,-0.02130307,1.6425107,-0.0084544085,488.10086,6.3877788,0.48575944,0.46182087,0.17240655,0.13107748,inf,inf,inf,inf,1,1,1,1,2,0,2,1,3,1,1,1,0,0
111680000,111680000,908000,47.3977508,8.5456073,-26.049805,-2.236881,-6.2649655,-2.805882e-05,0.0072953366,0.0,-1.9367188,-0.1795035,-0.020501928,-0.012916748,0.00071164995,-0.0002852638,-0.011124978,-0.56017953,-0.044487126,-0.014171935,1.6427912,-0.0084544085,488.10086,6.3909583,0.49655017,0.46175295,0.17747211,0.13198249,inf,inf,inf,inf,1,1,1,1,2,0,2,1,3,1,1,1,0,0
112176000,112176000,908000,47.3977508,8.5456073,-27.015945,-2.3178947,-6.2808313,-2.805882e-05,0.0072953366,0.0,-1.9719493,-0.19190118,-0.017261213,-0.017845761,0.00071164995,-0.0002852638,-0.011124978,0.36559406,-0.027064145,0.029333865,1.6426516,-0.0084544085,488.10086,6.406824,0.4638448,0.4563428,0.16312374,0.12817053,inf,inf,inf,inf,1,1,1,1,2,0,2,1,3,1,1,1,0,0
112680000,112680000,908000,47.3977508,8.5456073,-27.922316,-2.4022756,-6.305727,-2.805882e-05,0.0072953366,0.0,-1.5693626,-0.17021996,0.008632737,-0.008603906,0.00071164995,-0.0002852638,-0.011124978,1.1931517,0.046705607,0.10241195,1.6424412,-0.0084544085,488.10086,6.43172,0.47442007,0.45711553,0.16595553,0.12955816,inf,inf,inf,inf,1,1,1,1,2,0,2,1,3,1,1,1,0,0
113184000,113184000,908000,47.3977508,8.5456073,-28.54599,-2.4747512,-6.326131,-2.805882e-05,0.0072953366,0.0,-0.8225252,-0.1185397,0.0490229,0.011273609,0.00071164995,-0.0002852638,-0.011124978,1.7382069,0.12655416,0.109979875,1.6420746,-0.0084544085,488.10086,6.4521236,0.48553073,0.46184024,0.16990983,0.13139562,inf,inf,inf,inf,1,1,1,1,2,0,2,1,3,1,1,1,0,0
113680000,113680000,908000,47.3977508,8.5456073,-28.756432,-2.5134308,-6.3326035,-2.805882e-05,0.0072953366,0.0,0.067686185,-0.046081167,0.060943328,0.012824282,0.00071164995,-0.0002852638,-0.011124978,1.836562,0.12889405,0.07191579,1.6416003,-0.0084544085,488.10086,6.458596,0.49626502,0.4658198,0.17570506,0.13286845,inf,inf,inf,inf,1,1,1,1,2,0,2,1,3,1,1,1,0,0
114184000,114184000,908000,47.3977508,8.5456073,-28.520367,-2.5138779,-6.3323407,-2.805882e-05,0.0072953366,0.0,0.9063234,0.029462015,0.05809911,0.007923125,0.00071164995,-0.0002852638,-0.011124978,1.4906845,0.14805704,-0.046629455,1.6410203,-0.0084544085,488.10086,6.4583335,0.46456137,0.45701757,0.16530256,0.1284139,inf,inf,inf,inf,1,1,1,1,2,0,2,1,3,1,1,1,0,0
114680000,114680000,908000,47.3977508,8.5456073,-27.920004,-2.4812906,-6.3301764,-2.805882e-05,0.0072953366,0.0,1.4623086,0.0874687,0.044005424,-0.0031781537,0.00071164995,-0.0002852638,-0.011124978,0.75690216,0.040098265,-0.008855014,1.6406362,-0.0084544085,488.10086,6.456169,0.4744642,0.45691726,0.17087433,0.12929635,inf,inf,inf,inf,1,1,1,1,2,0,2,1,3,1,1,1,0,0
115184000,115184000,908000,47.3977508,8.5456073,-27.113161,-2.4311333,-6.3268375,-2.805882e-05,0.0072953366,0.0,1.6131662,0.11371668,0.032858957,-0.006599936,0.00071164995,-0.0002852638,-0.011124978,-0.13588788,0.0046345666,-0.042981464,1.6405784,-0.0084544085,488.10086,6.4528303,0.48581737,0.46146157,0.17477079,0.13101245,inf,inf,inf,inf,1,1,1,1,2,0,2,1,3,1,1,1,0,0
115680000,115680000,908000,47.3977508,8.5456073,-26.335545,-2.369376,-6.3286753,-2.805882e-05,0.0072953366,0.0,1.3250464,0.10723433,0.040816538,0.0032994142,0.00071164995,-0.0002852638,-0.011124978,-1.0329112,-0.033813715,0.043200325,1.6410543,-0.0084544085,488.10086,6.454668,0.4966166,0.46532005,0.17660114,0.13263935,inf,inf,inf,inf,1,1,1,1,2,0,2,1,3,1,1,1,0,0
116184000,116184000,908000,47.3977508,8.5456073,-25.768639,-2.3153849,-6.31858,-2.805882e-05,0.0072953366,0.0,0.6595755,0.06256667,0.050880373,0.017850973,0.00071164995,-0.0002852638,-0.011124978,-1.687301,-0.12657577,-0.009234062,1.6418458,-0.0084544085,488.10086,6.444573,0.46456292,0.45642468,0.16166443,0.12841147,inf,inf,inf,inf,1,1,1,1,2,0,2,1,3,1,1,1,0,0
116680000,116680000,908000,47.3977508,8.5456073,-25.591042,-2.2905211,-6.308574,-2.805882e-05,0.0072953366,0.0,-0.212144,-0.0033401833,0.039101787,0.008560716,0.00071164995,-0.0002852638,-0.011124978,-1.8956289,-0.15523516,-0.057545487,1.6423002,-0.0084544085,488.10086,6.434567,0.47437254,0.46023723,0.16547635,0.12995005,inf,inf,inf,inf,1,1,1,1,2,0,2,1,3,1,1,1,0,0
117184000,117184000,908000,47.3977508,8.5456073,-25.876997,-2.301973,-6.301657,-2.805882e-05,0.0072953366,0.0,-1.1034158,-0.074752554,0.033371795,0.0065262043,0.00071164995,-0.0002852638,-0.011124978,-1.6550194,-0.122073434,-0.02668891,1.6426315,-0.0084544085,488.10086,6.42765,0.48536482,0.46102244,0.17122367,0.13104846,inf,inf,inf,inf,1,1,1,1,2,0,2,1,3,1,1,1,0,0
117680000,117680000,908000,47.3977508,8.5456073,-26.558117,-2.3498867,-6.2977757,-2.805882e-05,0.0072953366,0.0,-1.763546,-0.13120219,0.019460706,-0.003816064,0.00071164995,-0.0002852638,-0.011124978,-1.0474122,-0.086804464,-0.033651475,1.6431237,-0.0084544085,488.10086,6.4237685,0.49598008,0.46096626,0.17680371,0.13190125,inf,inf,inf,inf,1,1,1,1,2,0,2,1,3,1,1,1,0,0
118184000,118184000,908000,47.3977508,8.5456073,-27.500101,-2.4206383,-6.297826,-2.805882e-05,0.0072953366,0.0,-2.0466394,-0.16214962,0.0040391316,-0.014637642,0.00071164995,-0.0002852638,-0.011124978,-0.16878602,-0.015848868,0.0029085202,1.642711,-0.0084544085,488.10086,6.4238186,0.46429494,0.45630485,0.1638403,0.12821558,inf,inf,inf,inf,1,1,1,1,2,0,2,1,3,1,1,1,0,0
118680000,118680000,908000,47.3977508,8.5456073,-28.479086,-2.4967697,-6.3040257,-2.805882e-05,0.0072953366,0.0,-1.8829291,-0.15664676,0.004510404,-0.013146607,0.00071164995,-0.0002852638,-0.011124978,0.7450673,0.053032596,0.04549231,1.6426685,-0.0084544085,488.10086,6.4300184,0.47408637,0.46022066,0.16671433,0.12991825,inf,inf,inf,inf,1,1,1,1,2,0,2,1,3,1,1,1,0,0
119184000,119184000,908000,47.3977508,8.5456073,-29.310072,-2.5708218,-6.3083963,-2.805882e-05,0.0072953366,0.0,-1.3091265,-0.12338209,0.029671641,0.008244151,0.00071164995,-0.0002852638,-0.011124978,1.4963794,0.090540424,0.05668029,1.6423253,-0.0084544085,488.10086,6.434389,0.4852443,0.46090087,0.16998543,0.13125695,inf,inf,inf,inf,1,1,1,1,2,0,2,1,3,1,1,1,0,0
119680000,119680000,908000,47.3977508,8.5456073,-29.782879,-2.6224782,-6.299507,-2.805882e-05,0.0072953366,0.0,-0.47437862,-0.066229984,0.035509463,0.015999053,0.00071164995,-0.0002852638,-0.011124978,1.8444425,0.12114466,-0.015783122,1.6419128,-0.0084544085,488.10086,6.4255,0.4960387,0.4649284,0.17472884,0.13284393,inf,inf,inf,inf,1,1,1,1,2,0,2,1,3,1,1,1,0,0
120184000,120184000,908000,47.3977508,8.5456073,-29.822193,-2.641177,-6.284255,-2.805882e-05,0.0072953366,0.0,0.4382883,0.0047463328,0.012348809,0.003071301,0.00071164995,-0.0002852638,-0.011124978,1.7601957,0.13635658,-0.034459863,1.641455,-0.0084544085,488.10086,6.410248,0.4642984,0.4561859,0.1642067,0.12843032,inf,inf,inf,inf,1,1,1,1,2,0,2,1,3,1,1,1,0,0
120680000,120680000,908000,47.3977508,8.5456073,-29.440428,-2.6258142,-6.280551,-2.805882e-05,0.0072953366,0.0,1.1761899,0.06649321,-0.0013045488,-0.0066044205,0.00071164995,-0.0002852638,-0.011124978,1.2518685,0.12512094,-0.038791444,1.6409975,-0.0084544085,488.10086,6.4065437,0.47421417,0.46003267,0.17053342,0.12981652,inf,inf,inf,inf,1,1,1,1,2,0,2,1,3,1,1,1,0,0
121184000,121184000,908000,47.3977508,8.5456073,-28.73636,-2.5838997,-6.2835336,-2.805882e-05,0.0072953366,0.0,1.5808337,0.110266484,-0.011225609,-0.014338473,0.00071164995,-0.0002852638,-0.011124978,0.38385242,0.10618287,-0.012378207,1.6406626,-0.0084544085,488.10086,6.4095263,0.44756827,0.45181572,0.15984595,0.12579067,inf,inf,inf,inf,1,1,1,1,2,0,2,1,3,1,1,1,0,0
121680000,121680000,908000,47.3977508,8.5456073,-27.933928,-2.5218422,-6.281639,-2.805882e-05,0.0072953366,0.0,1.5478171,0.12487792,-0.0148189645,-0.009790596,0.00071164995,-0.0002852638,-0.011124978,-0.5537775,-0.016539851,-0.012423842,1.6410495,-0.0084544085,488.10086,6.407632,0.45914057,0.4558166,0.16415565,0.12777306,inf,inf,inf,inf,1,1,1,1,2,0,2,1,3,1,1,1,0,0
122184000,122184000,908000,47.3977508,8.5456073,-27.23332,-2.4635742,-6.269916,-2.805882e-05,0.0072953366,0.0,1.0796773,0.097122945,-0.005118406,0.0106637515,0.00071164995,-0.0002852638,-0.011124978,-1.3527403,-0.11172778,0.005160458,1.6415046,-0.0084544085,488.10086,6.395909,0.47209096,0.4567889,0.16760163,0.12946591,inf,inf,inf,inf,1,1,1,1,2,0,2,1,3,1,1,1,0,0
122680000,122680000,908000,47.3977508,8.5456073,-26.847425,-2.4292119,-6.257443,-2.805882e-05,0.0072953366,0.0,0.30276024,0.038206946,-0.009544055,0.010863994,0.00071164995,-0.0002852638,-0.011124978,-1.7811506,-0.10615158,-0.016614793,1.6416236,-0.0084544085,488.10086,6.3834357,0.48466173,0.46099317,0.17147234,0.13139287,inf,inf,inf,inf,1,1,1,1,2,0,2,1,3,1,1,1,0,0
123176000,123176000,908000,47.3977508,8.5456073,-26.882248,-2.4201515,-6.2472043,-2.805882e-05,0.0072953366,0.0,-0.60060227,-0.029099813,-0.021605987,0.004118112,0.00071164995,-0.0002852638,-0.011124978,-1.8359386,-0.12636827,0.008142552,1.6422768,-0.0084544085,488.10086,6.373197,0.4558169,0.45217878,0.16028687,0.12724379,inf,inf,inf,inf,1,1,1,1,2,0,2,1,3,1,1,1,0,0
123680000,123680000,908000,47.3977508,8.5456073,-27.363344,-2.443585,-6.23308,-2.805882e-05,0.0072953366,0.0,-1.4216763,-0.09762726,-0.03100522,0.005580377,0.00071164995,-0.0002852638,-0.011124978,-1.4284378,-0.13330801,-0.06929505,1.643082,-0.0084544085,488.10086,6.3590727,0.4675264,0.45686474,0.16653593,0.12903906,inf,inf,inf,inf,1,1,1,1,2,0,2,1,3,1,1,1,0,0
124184000,124184000,908000,47.3977508,8.5456073,-28.204193,-2.505913,-6.236045,-2.805882e-05,0.0072953366,0.0,-1.9450768,-0.14692806,-0.0517447,-0.016330687,0.00071164995,-0.0002852638,-0.011124978,-0.6700221,-0.09345632,-0.02442859,1.6429416,-0.0084544085,488.10086,6.3620377,0.47956616,0.45778477,0.17206034,0.13032532,inf,inf,inf,inf,1,1,1,1,2,0,2,1,3,1,1,1,0,0
124680000,124680000,908000,47.3977508,8.5456073,-29.20347,-2.5791953,-6.245011,-2.805882e-05,0.0072953366,0.0,-2.041978,-0.15736271,-0.053800207,-0.020037442,0.00071164995,-0.0002852638,-0.011124978,0.2738354,0.025071697,0.03076717,1.6430702,-0.0084544085,488.10086,6.3710036,0.49123937,0.46211013,0.17576748,0.13210669,inf,inf,inf,inf,1,1,1,1,2,0,2,1,3,1,1,1,0,0
125184000,125184000,908000,47.3977508,8.5456073,-30.168344,-2.6528332,-6.255148,-2.805882e-05,0.0072953366,0.0,-1.6929972,-0.13634676,-0.039784048,-0.009754265,0.00071164995,-0.0002852638,-0.011124978,1.1136684,0.08073755,0.058954578,1.6427876,-0.0084544085,488.10086,6.3811407,0.4636162,0.4541354,0.16358435,0.12854537,inf,inf,inf,inf,1,1,1,1,2,0,2,1,3,1,1,1,0,0
125680000,125680000,908000,47.3977508,8.5456073,-30.865976,-2.7180371,-6.2527733,-2.805882e-05,0.0072953366,0.0,-0.9944124,-0.088175364,-0.016199477,0.012988031,0.00071164995,-0.0002852638,-0.011124978,1.6875776,0.1394995,-0.025001353,1.6423585,-0.0084544085,488.10086,6.378766,0.44161543,0.4501774,0.15513289,0.12579387,inf,inf,inf,inf,1,1,1,1,2,0,2,1,3,1,1,1,0,0
126184000,126184000,908000,47.3977508,8.5456073,-31.169123,-2.7585773,-6.251073,-2.805882e-05,0.0072953366,0.0,-0.09356543,-0.02383237,-0.019834524,0.005423618,0.00071164995,-0.0002852638,-0.011124978,1.8956795,0.14258376,-0.050741244,1.6416078,-0.0084544085,488.10086,6.3770657,0.45611107,0.45170042,0.16345578,0.12775959,inf,inf,inf,inf,1,1,1,1,2,0,2,1,3,1,1,1,0,0
126680000,126680000,908000,47.3977508,8.5456073,-31.020992,-2.76721,-6.2519226,-2.805882e-05,0.0072953366,0.0,0.75714254,0.043229695,-0.02502,-0.0014266617,0.00071164995,-0.0002852638,-0.011124978,1.5670854,0.16204505,-0.029223038,1.6411786,-0.0084544085,488.10086,6.3779154,0.4705268,0.45633474,0.17225721,0.1298177,inf,inf,inf,inf,1,1,1,1,2,0,2,1,3,1,1,1,0,0
127184000,127184000,908000,47.3977508,8.5456073,-30.48386,-2.737143,-6.248912,-2.805882e-05,0.0072953366,0.0,1.3714175,0.101936884,-0.036325444,-0.008438647,0.00071164995,-0.0002852638,-0.011124978,0.8661483,0.11035772,-0.03293063,1.6408515,-0.0084544085,488.10086,6.3749046,0.44680476,0.44920245,0.16315222,0.12626895,inf,inf,inf,inf,1,1,1,1,2,0,2,1,3,1,1,1,0,0
127680000,127680000,908000,47.3977508,8.5456073,-29.725916,-2.688838,-6.2487025,-2.805882e-05,0.0072953366,0.0,1.5859932,0.12876718,-0.042587366,-0.009429268,0.00071164995,-0.0002852638,-0.011124978,-0.031262226,0.030482216,-0.03835279,1.6408216,-0.0084544085,488.10086,6.3746953,0.45930743,0.45365772,0.16770408,0.12825662,inf,inf,inf,inf,1,1,1,1,2,0,2,1,3,1,1,1,0,0
128184000,128184000,908000,47.3977508,8.5456073,-28.938925,-2.624386,-6.249049,-2.805882e-05,0.0072953366,0.0,1.3569219,0.12269365,-0.04106691,-0.0043663033,0.00071164995,-0.0002852638,-0.011124978,-0.90736157,-0.026886567,-0.011336989,1.6411827,-0.0084544085,488.10086,6.375042,0.4729714,0.45512834,0.17075427,0.12997875,inf,inf,inf,inf,1,1,1,1,2,0,2,1,3,1,1,1,0,0
128680000,128680000,908000,47.3977508,8.5456073,-28.363056,-2.5668316,-6.250941,-2.805882e-05,0.0072953366,0.0,0.7433039,0.083127,-0.022637626,0.009641396,0.00071164995,-0.0002852638,-0.011124978,-1.605638,-0.13935871,0.008198432,1.6417617,-0.0084544085,488.10086,6.3769336,0.48584476,0.4598852,0.17308922,0.13198376,inf,inf,inf,inf,1,1,1,1,2,0,2,1,3,1,1,1,0,0
129184000,129184000,908000,47.3977508,8.5456073,-28.148733,-2.5358994,-6.248197,-2.805882e-05,0.0072953366,0.0,-0.12890694,0.017012086,-0.017389707,0.01183952,0.00071164995,-0.0002852638,-0.011124978,-1.8716813,-0.14262123,-0.03141537,1.6421195,-0.0084544085,488.10086,6.37419,0.45718873,0.45209423,0.16036129,0.12797622,inf,inf,inf,inf,1,1,1,1,2,0,2,1,3,1,1,1,0,0
129680000,129680000,908000,47.3977508,8.5456073,-28.380306,-2.5376508,-6.2375546,-2.805882e-05,0.0072953366,0.0,-1.0197501,-0.058473762,-0.02531188,0.009338262,0.00071164995,-0.0002852638,-0.011124978,-1.7674809,-0.14732744,-0.043842938,1.6429119,-0.0084544085,488.10086,6.3635473,0.46808258,0.45648023,0.16547851,0.1295596,inf,inf,inf,inf,1,1,1,1,2,0,2,1,3,1,1,1,0,0
130184000,130184000,908000,47.3977508,8.5456073,-29.033182,-2.5765936,-6.2347383,-2.805882e-05,0.0072953366,0.0,-1.7340648,-0.12523264,-0.038370993,-0.0028685306,0.00071164995,-0.0002852638,-0.011124978,-1.1254718,-0.11128098,-0.041624527,1.6431323,-0.0084544085,488.10086,6.360731,0.48003373,0.4576179,0.17135975,0.1306806,inf,inf,inf,inf,1,1,1,1,2,0,2,1,3,1,1,1,0,0
130680000,130680000,908000,47.3977508,8.5456073,-29.957018,-2.6432295,-6.2472157,-2.805882e-05,0.0072953366,0.0,-2.0769129,-0.16593274,-0.04540589,-0.01688763,0.00071164995,-0.0002852638,-0.011124978,-0.29704422,-0.09903286,-0.010670162,1.6432415,-0.0084544085,488.10086,6.3732085,0.4914904,0.46193472,0.17580892,0.13221209,inf,inf,inf,inf,1,1,1,1,2,0,2,1,3,1,1,1,0,0
131184000,131184000,908000,47.3977508,8.5456073,-30.97283,-2.722593,-6.2564106,-2.805882e-05,0.0072953366,0.0,-1.9757546,-0.17185324,-0.04061384,-0.01319487,0.00071164995,-0.0002852638,-0.011124978,0.6211064,0.048578408,0.035054978,1.6428845,-0.0084544085,488.10086,6.3824034,0.4608485,0.4573444,0.16187295,0.1285316,inf,inf,inf,inf,1,1,1,1,2,0,2,1,3,1,1,1,0,0
131680000,131680000,908000,47.3977508,8.5456073,-31.838757,-2.7878866,-6.257594,-2.805882e-05,0.0072953366,0.0,-1.4629115,-0.13821296,-0.023721846,0.004933385,0.00071164995,-0.0002852638,-0.011124978,1.4161171,0.082986645,0.023342667,1.6427265,-0.0084544085,488.10086,6.383587,0.47108805,0.4573792,0.16476847,0.12964125,inf,inf,inf,inf,1,1,1,1,2,0,2,1,3,1,1,1,0,0
132184000,132184000,908000,47.3977508,8.5456073,-32.397522,-2.829312,-6.2634363,-2.805882e-05,0.0072953366,0.0,-0.6490079,-0.078041166,-0.007683667,0.010350655,0.00071164995,-0.0002852638,-0.011124978,1.7943085,0.113192126,0.02468936,1.6424365,-0.0084544085,488.10086,6.389429,0.4825669,0.46222782,0.16932955,0.13141114,inf,inf,inf,inf,1,1,1,1,2,0,2,1,3,1,1,1,0,0
132680000,132680000,908000,47.3977508,8.5456073,-32.513783,-2.8380768,-6.2644715,-2.805882e-05,0.0072953366,0.0,0.24988228,-0.006283816,-0.0095459595,0.003862793,0.00071164995,-0.0002852638,-0.011124978,1.7284573,0.15244125,0.014872289,1.6420428,-0.0084544085,488.10086,6.3904643,0.49375224,0.46237788,0.1755121,0.1323044,inf,inf,inf,inf,1,1,1,1,2,0,2,1,3,1,1,1,0,0
133184000,133184000,908000,47.3977508,8.5456073,-32.194233,-2.8100717,-6.2585135,-2.805882e-05,0.0072953366,0.0,1.0358549,0.056011092,-0.0152592845,0.0024185288,0.00071164995,-0.0002852638,-0.011124978,1.3625025,0.09683821,-0.055545006,1.6418009,-0.0084544085,488.10086,6.384506,0.46245375,0.45766115,0.16464902,0.12838332,inf,inf,inf,inf,1,1,1,1,2,0,2,1,3,1,1,1,0,0
133680000,133680000,908000,47.3977508,8.5456073,-31.546833,-2.755261,-6.260109,-2.805882e-05,0.0072953366,0.0,1.4957886,0.09864056,-0.030683002,-0.012402204,0.00071164995,-0.0002852638,-0.011124978,0.5105426,0.023799859,0.019073484,1.6415018,-0.0084544085,488.10086,6.3861017,0.47261614,0.45754212,0.16968647,0.12929647,inf,inf,inf,inf,1,1,1,1,2,0,2,1,3,1,1,1,0,0
134184000,134184000,908000,47.3977508,8.5456073,-30.752668,-2.6812794,-6.277105,-2.805882e-05,0.0072953366,0.0,1.5270703,0.11169186,-0.023368193,-0.014621771,0.00071164995,-0.0002852638,-0.011124978,-0.39772215,-0.028579757,0.08857715,1.6416905,-0.0084544085,488.10086,6.4030976,0.48401237,0.46200997,0.17303638,0.13103378,inf,inf,inf,inf,1,1,1,1,2,0,2,1,3,1,1,1,0,0
134680000,134680000,908000,47.3977508,8.5456073,-30.051643,-2.610068,-6.2856593,-2.805882e-05,0.0072953366,0.0,1.1240928,0.08537095,0.0017146481,0.0051160553,0.00071164995,-0.0002852638,-0.011124978,-1.2471719,-0.114865296,0.03917608,1.6420829,-0.0084544085,488.10086,6.411652,0.49490473,0.46578375,0.17495044,0.13266262,inf,inf,inf,inf,1,1,1,1,2,0,2,1,3,1,1,1,0,0
135184000,135184000,908000,47.3977508,8.5456073,-29.616457,-2.5573711,-6.2841425,-2.805882e-05,0.0072953366,0.0,0.37434128,0.028454488,0.016830113,0.015757423,0.00071164995,-0.0002852638,-0.011124978,-1.791916,-0.14743969,-0.01275353,1.6423837,-0.0084544085,488.10086,6.4101353,0.46325135,0.45683476,0.16080712,0.12839812,inf,inf,inf,inf,1,1,1,1,2,0,2,1,3,1,1,1,0,0
135680000,135680000,908000,47.3977508,8.5456073,-29.603014,-2.5334568,-6.282259,-2.805882e-05,0.0072953366,0.0,-0.52033615,-0.043898858,0.015521618,0.011245224,0.00071164995,-0.0002852638,-0.011124978,-1.889018,-0.17697848,0.011837109,1.6428905,-0.0084544085,488.10086,6.408252,0.47297126,0.46057832,0.16504334,0.12987153,inf,inf,inf,inf,1,1,1,1,2,0,2,1,3,1,1,1,0,0
136184000,136184000,908000,47.3977508,8.5456073,-30.042847,-2.5586672,-6.2771564,-2.805882e-05,0.0072953366,0.0,-1.3656987,-0.12162134,0.011198612,0.007553931,0.00071164995,-0.0002852638,-0.011124978,-1.5103265,-0.15948458,-0.048339363,1.6428849,-0.0084544085,488.10086,6.403149,0.48385653,0.4612728,0.17074917,0.13092327,inf,inf,inf,inf,1,1,1,1,2,0,2,1,3,1,1,1,0,0
136680000,136680000,908000,47.3977508,8.5456073,-30.85297,-2.6148002,-6.2743635,-2.805882e-05,0.0072953366,0.0,-1.9374111,-0.1751132,-0.0026535604,-0.0038522705,0.00071164995,-0.0002852638,-0.011124978,-0.77060044,-0.11405661,-0.053509135,1.6430222,-0.0084544085,488.10086,6.4003563,0.4945229,0.4614109,0.17600922,0.13185662,inf,inf,inf,inf,1,1,1,1,2,0,2,1,3,1,1,1,0,0
137184000,137184000,908000,47.3977508,8.5456073,-31.88273,-2.6825564,-6.275478,-2.805882e-05,0.0072953366,0.0,-2.1031992,-0.19446002,-0.015911095,-0.013328234,0.00071164995,-0.0002852638,-0.011124978,0.13472092,-0.051932815,-0.0017723067,1.643274,-0.0084544085,488.10086,6.4014707,0.46313444,0.45679346,0.16285756,0.1282106,inf,inf,inf,inf,1,1,1,1,2,0,2,1,3,1,1,1,0,0
137680000,137680000,908000,47.3977508,8.5456073,-32.88397,-2.7565196,-6.290883,-2.805882e-05,0.0072953366,0.0,-1.822584,-0.1817889,-0.010332416,-0.016083678,0.00071164995,-0.0002852638,-0.011124978,1.018536,0.054717686,0.111317255,1.643032,-0.0084544085,488.10086,6.416876,0.47282663,0.45677665,0.16566549,0.12937367,inf,inf,inf,inf,1,1,1,1,2,0,2,1,3,1,1,1,0,0
138184000,138184000,908000,47.3977508,8.5456073,-33.671032,-2.8260286,-6.3090177,-2.805882e-05,0.0072953366,0.0,-1.1593299,-0.14104718,0.029521808,0.007785975,0.00071164995,-0.0002852638,-0.011124978,1.6091818,0.08548612,0.08726864,1.6426761,-0.0084544085,488.10086,6.4350104,0.4839872,0.46142203,0.16934589,0.13123147,inf,inf,inf,inf,1,1,1,1,2,0,2,1,3,1,1,1,0,0
138680000,138680000,908000,47.3977508,8.5456073,-34.058292,-2.8711889,-6.3121862,-2.805882e-05,0.0072953366,0.0,-0.2824997,-0.0819952,0.044531193,0.014607315,0.00071164995,-0.0002852638,-0.011124978,1.8361982,0.1316691,0.041292045,1.6424505,-0.0084544085,488.10086,6.438179,0.49463364,0.46531892,0.17443867,0.13272837,inf,inf,inf,inf,1,1,1,1,2,0,2,1,3,1,1,1,0,0
139184000,139184000,908000,47.3977508,8.5456073,-34.008038,-2.8741207,-6.309315,-2.805882e-05,0.0072953366,0.0,0.6084416,-0.010573038,0.039782517,0.009011842,0.00071164995,-0.0002852638,-0.011124978,1.6800739,0.124964505,-0.028755514,1.6419761,-0.0084544085,488.10086,6.435308,0.46308208,0.4564728,0.16385485,0.12827112,inf,inf,inf,inf,1,1,1,1,2,0,2,1,3,1,1,1,0,0
139680000,139680000,908000,47.3977508,8.5456073,-33.566982,-2.8346725,-6.3243837,-2.805882e-05,0.0072953366,0.0,1.26484,0.051233135,0.03996898,-0.004214955,0.00071164995,-0.0002852638,-0.011124978,1.0613394,0.055476118,0.042001713,1.6417532,-0.0084544085,488.10086,6.4503765,0.47588688,0.45690846,0.1719153,0.12961178,inf,inf,inf,inf,1,1,1,1,2,0,2,1,3,1,1,1,0,0
140184000,140184000,908000,47.3977508,8.5456073,-32.842804,-2.779144,-6.335211,-2.805882e-05,0.0072953366,0.0,1.5586338,0.07676046,0.040825292,-0.00865992,0.00071164995,-0.0002852638,-0.011124978,0.14079192,0.020308608,-0.027439555,1.6416043,-0.0084544085,488.10086,6.4612036,0.4506239,0.45310935,0.1615808,0.12654178,inf,inf,inf,inf,1,1,1,1,2,0,2,1,3,1,1,1,0,0
140680000,140680000,908000,47.3977508,8.5456073,-32.079052,-2.7065382,-6.345206,-2.805882e-05,0.0072953366,0.0,1.4091544,0.076653264,0.048945703,-0.00463842,0.00071164995,-0.0002852638,-0.011124978,-0.7778955,-0.08794912,0.06077159,1.6420599,-0.0084544085,488.10086,6.4711986,0.46207428,0.45352042,0.16502568,0.12804192,inf,inf,inf,inf,1,1,1,1,2,0,2,1,3,1,1,1,0,0
141184000,141184000,908000,47.3977508,8.5456073,-31.473652,-2.6460478,-6.342816,-2.805882e-05,0.0072953366,0.0,0.844695,0.03284109,0.06872578,0.015949693,0.00071164995,-0.0002852638,-0.011124978,-1.5330304,-0.122061655,0.013488344,1.6421316,-0.0084544085,488.10086,6.4688087,0.47475526,0.458434,0.16812193,0.13017735,inf,inf,inf,inf,1,1,1,1,2,0,2,1,3,1,1,1,0,0
141680000,141680000,908000,47.3977508,8.5456073,-31.220692,-2.61514,-6.3333764,-2.805882e-05,0.0072953366,0.0,0.016857522,-0.03510983,0.06401168,0.013728475,0.00071164995,-0.0002852638,-0.011124978,-1.8440118,-0.1679064,-0.003355555,1.6422281,-0.0084544085,488.10086,6.459369,0.48694745,0.4626622,0.17202282,0.13197705,inf,inf,inf,inf,1,1,1,1,2,0,2,1,3,1,1,1,0,0
142184000,142184000,908000,47.3977508,8.5456073,-31.407383,-2.6158216,-6.334486,-2.805882e-05,0.0072953366,0.0,-0.88790536,-0.10927119,0.06784884,0.012519159,0.00071164995,-0.0002852638,-0.011124978,-1.7317402,-0.1733917,-0.008405185,1.6428069,-0.0084544085,488.10086,6.460479,0.4580098,0.45425037,0.16090542,0.12778792,inf,inf,inf,inf,1,1,1,1,2,0,2,1,3,1,1,1,0,0
142680000,142680000,908000,47.3977508,8.5456073,-32.017036,-2.6447804,-6.3287725,-2.805882e-05,0.0072953366,0.0,-1.6324763,-0.16789907,0.054050166,0.0011593958,0.00071164995,-0.0002852638,-0.011124978,-1.2522569,-0.14924484,-0.025321728,1.642885,-0.0084544085,488.10086,6.4547653,0.46851477,0.45809373,0.16634491,0.12928632,inf,inf,inf,inf,1,1,1,1,2,0,2,1,3,1,1,1,0,0
143184000,143184000,908000,47.3977508,8.5456073,-32.947247,-2.7049685,-6.3301935,-2.805882e-05,0.0072953366,0.0,-2.040603,-0.20601834,0.04189485,-0.008945045,0.00071164995,-0.0002852638,-0.011124978,-0.40064162,-0.055337418,-0.011662952,1.6429925,-0.0084544085,488.10086,6.4561863,0.48026803,0.4587821,0.17133024,0.13049075,inf,inf,inf,inf,1,1,1,1,2,0,2,1,3,1,1,1,0,0
143680000,143680000,908000,47.3977508,8.5456073,-33.976467,-2.786346,-6.3324695,-2.805882e-05,0.0072953366,0.0,-2.0134745,-0.21432647,0.03501047,-0.011925311,0.00071164995,-0.0002852638,-0.011124978,0.49211967,0.02297844,0.019926576,1.6429765,-0.0084544085,488.10086,6.458462,0.49175543,0.46271887,0.17477795,0.13218066,inf,inf,inf,inf,1,1,1,1,2,0,2,1,3,1,1,1,0,0
144184000,144184000,908000,47.3977508,8.5456073,-34.926285,-2.8719199,-6.335628,-2.805882e-05,0.0072953366,0.0,-1.5632043,-0.18907492,0.052661005,0.0062284055,0.00071164995,-0.0002852638,-0.011124978,1.2906678,0.090489656,0.048571263,1.6428738,-0.0084544085,488.10086,6.461621,0.46103337,0.45785138,0.1609514,0.12856625,inf,inf,inf,inf,1,1,1,1,2,0,2,1,3,1,1,1,0,0
144680000,144680000,908000,47.3977508,8.5456073,-35.557106,-2.9414592,-6.32955,-2.805882e-05,0.0072953366,0.0,-0.7984605,-0.1383517,0.06285061,0.015918782,0.00071164995,-0.0002852638,-0.011124978,1.8197976,0.09615799,-0.0020368022,1.6428012,-0.0084544085,488.10086,6.4555426,0.47120008,0.45759565,0.1649472,0.12961546,inf,inf,inf,inf,1,1,1,1,2,0,2,1,3,1,1,1,0,0
145184000,145184000,908000,47.3977508,8.5456073,-35.76268,-2.9805713,-6.3126416,-2.805882e-05,0.0072953366,0.0,0.11682265,-0.0665004,0.04580247,0.009216953,0.00071164995,-0.0002852638,-0.011124978,1.8499614,0.15533298,-0.07916055,1.6424485,-0.0084544085,488.10086,6.4386344,0.482635,0.4620845,0.17112984,0.13123906,inf,inf,inf,inf,1,1,1,1,2,0,2,1,3,1,1,1,0,0
145680000,145680000,908000,47.3977508,8.5456073,-35.51974,-2.9836547,-6.3068876,-2.805882e-05,0.0072953366,0.0,0.92978513,0.0029539953,0.027304184,-0.0037723845,0.00071164995,-0.0002852638,-0.011124978,1.4403256,0.10401654,-0.035575587,1.641805,-0.0084544085,488.10086,6.4328804,0.49372348,0.46588022,0.1777607,0.132581,inf,inf,inf,inf,1,1,1,1,2,0,2,1,3,1,1,1,0,0
146184000,146184000,908000,47.3977508,8.5456073,-34.924892,-2.9527354,-6.2967353,-2.805882e-05,0.0072953366,0.0,1.451285,0.061439775,0.008728084,-0.009920407,0.00071164995,-0.0002852638,-0.011124978,0.62600577,0.075218275,-0.045975666,1.6414208,-0.0084544085,488.10086,6.422728,0.46242273,0.45680675,0.16548201,0.12811469,inf,inf,inf,inf,1,1,1,1,2,0,2,1,3,1,1,1,0,0
146680000,146680000,908000,47.3977508,8.5456073,-34.160984,-2.9046159,-6.2921414,-2.805882e-05,0.0072953366,0.0,1.550018,0.08246248,-0.005455103,-0.013571137,0.00071164995,-0.0002852638,-0.011124978,-0.2666173,0.013983546,-0.029637476,1.6413876,-0.0084544085,488.10086,6.418134,0.472505,0.4566902,0.16882372,0.12916848,inf,inf,inf,inf,1,1,1,1,2,0,2,1,3,1,1,1,0,0
147184000,147184000,908000,47.3977508,8.5456073,-33.43383,-2.8670018,-6.291287,-2.805882e-05,0.0072953366,0.0,1.2052312,0.06225619,0.0066703428,0.001588613,0.00071164995,-0.0002852638,-0.011124978,-1.0936462,-0.06871292,0.04806928,1.6412411,-0.0084544085,488.10086,6.4172797,0.48387524,0.46133938,0.17121835,0.13104759,inf,inf,inf,inf,1,1,1,1,2,0,2,1,3,1,1,1,0,0
147680000,147680000,908000,47.3977508,8.5456073,-32.967525,-2.8468316,-6.274005,-2.805882e-05,0.0072953366,0.0,0.5059739,0.015384275,0.009055288,0.014225838,0.00071164995,-0.0002852638,-0.011124978,-1.7286037,-0.15035178,-0.022062099,1.6418877,-0.0084544085,488.10086,6.3999977,0.49466693,0.4613046,0.17362747,0.13212912,inf,inf,inf,inf,1,1,1,1,2,0,2,1,3,1,1,1,0,0
148184000,148184000,908000,47.3977508,8.5456073,-32.891243,-2.8549907,-6.2558107,-2.805882e-05,0.0072953366,0.0,-0.39325824,-0.055524286,-0.012767189,0.00316332,0.00071164995,-0.0002852638,-0.011124978,-1.8651104,-0.19946377,-0.011406838,1.642535,-0.0084544085,488.10086,6.3818035,0.46313265,0.4566552,0.16110843,0.12837851,inf,inf,inf,inf,1,1,1,1,2,0,2,1,3,1,1,1,0,0
148680000,148680000,908000,47.3977508,8.5456073,-33.27183,-2.8972743,-6.2468534,-2.805882e-05,0.0072953366,0.0,-1.248797,-0.12191001,-0.019427104,0.0023018445,0.00071164995,-0.0002852638,-0.011124978,-1.5531363,-0.09883301,-0.020818783,1.6428221,-0.0084544085,488.10086,6.372846,0.47291934,0.4566801,0.16630194,0.12929954,inf,inf,inf,inf,1,1,1,1,2,0,2,1,3,1,1,1,0,0
149184000,149184000,908000,47.3977508,8.5456073,-34.0548,-2.9653957,-6.2525907,-2.805882e-05,0.0072953366,0.0,-1.8716241,-0.16918872,-0.032535926,-0.015372767,0.00071164995,-0.0002852638,-0.011124978,-0.9295434,-0.057949893,0.018085351,1.6437318,-0.0084544085,488.10086,6.3785834,0.48385552,0.46125513,0.17174271,0.13088712,inf,inf,inf,inf,1,1,1,1,2,0,2,1,3,1,1,1,0,0
149680000,149680000,908000,47.3977508,8.5456073,-35.05551,-3.0526586,-6.257752,-2.805882e-05,0.0072953366,0.0,-2.0940862,-0.18858619,-0.035448175,-0.016988654,0.00071164995,-0.0002852638,-0.011124978,-0.003182911,0.004421272,-0.05166884,1.6434327,-0.0084544085,488.10086,6.3837447,0.49446845,0.46509436,0.17564161,0.13239929,inf,inf,inf,inf,1,1,1,1,2,0,2,1,3,1,1,1,0,0
150184000,150184000,908000,47.3977508,8.5456073,-36.084988,-3.1408036,-6.256085,-2.805882e-05,0.0072953366,0.0,-1.8709198,-0.17027329,-0.034785602,-0.008764597,0.00071164995,-0.0002852638,-0.011124978,0.8877403,0.07176555,0.0100918105,1.6435335,-0.0084544085,488.10086,6.3820777,0.46287206,0.45617545,0.16168232,0.12819712,inf,inf,inf,inf,1,1,1,1,2,0,2,1,3,1,1,1,0,0
150680000,150680000,908000,47.3977508,8.5456073,-36.895477,-3.2144613,-6.250869,-2.805882e-05,0.0072953366,0.0,-1.2595901,-0.120674096,-0.01867603,0.010759762,0.00071164995,-0.0002852638,-0.011124978,1.5720514,0.09745593,0.0083595505,1.6431147,-0.0084544085,488.10086,6.3768616,0.47261727,0.45987204,0.16491649,0.12983862,inf,inf,inf,inf,1,1,1,1,2,0,2,1,3,1,1,1,0,0
151184000,151184000,908000,47.3977508,8.5456073,-37.343662,-3.2734253,-6.2481623,-2.805882e-05,0.0072953366,0.0,-0.38697788,-0.05446392,-0.01919563,0.0070149475,0.00071164995,-0.0002852638,-0.011124978,1.8282645,0.15480337,-0.0039413567,1.6424277,-0.0084544085,488.10086,6.374155,0.4836877,0.46028313,0.17013063,0.13097098,inf,inf,inf,inf,1,1,1,1,2,0,2,1,3,1,1,1,0,0
151680000,151680000,908000,47.3977508,8.5456073,-37.338757,-3.297958,-6.246755,-2.805882e-05,0.0072953366,0.0,0.50581735,0.020173736,-0.028137077,-0.0019385028,0.00071164995,-0.0002852638,-0.011124978,1.6992738,0.15899773,0.010021961,1.641863,-0.0084544085,488.10086,6.372748,0.4944401,0.4640571,0.17654301,0.13234907,inf,inf,inf,inf,1,1,1,1,2,0,2,1,3,1,1,1,0,0
152184000,152184000,908000,47.3977508,8.5456073,-36.9218,-3.2954988,-6.241607,-2.805882e-05,0.0072953366,0.0,1.219492,0.085200705,-0.03820151,-0.00665678,0.00071164995,-0.0002852638,-0.011124978,1.1180625,0.1532302,-0.05630124,1.6412908,-0.0084544085,488.10086,6.3676,0.46282464,0.45899484,0.16515914,0.12838809,inf,inf,inf,inf,1,1,1,1,2,0,2,1,3,1,1,1,0,0
152680000,152680000,908000,47.3977508,8.5456073,-36.23351,-3.2768235,-6.2537813,-2.805882e-05,0.0072953366,0.0,1.558601,0.12295962,-0.042345025,-0.016793126,0.00071164995,-0.0002852638,-0.011124978,0.2767221,0.10311618,-0.008257105,1.6407907,-0.0084544085,488.10086,6.379774,0.4727236,0.45860237,0.16948965,0.12930661,inf,inf,inf,inf,1,1,1,1,2,0,2,1,3,1,1,1,0,0
153184000,153184000,908000,47.3977508,8.5456073,-35.453255,-3.2398,-6.2645693,-2.805882e-05,0.0072953366,0.0,1.4574921,0.13017067,-0.032315552,-0.010261168,0.00071164995,-0.0002852638,-0.011124978,-0.6753096,-0.025371205,0.030314548,1.6410364,-0.0084544085,488.10086,6.390562,0.48400074,0.46300632,0.1724377,0.13110721,inf,inf,inf,inf,1,1,1,1,2,0,2,1,3,1,1,1,0,0
153680000,153680000,908000,47.3977508,8.5456073,-34.82824,-3.196631,-6.2606063,-2.805882e-05,0.0072953366,0.0,0.93869185,0.10969798,-0.013023876,0.011638086,0.00071164995,-0.0002852638,-0.011124978,-1.3903694,-0.05516218,-0.002400018,1.6417314,-0.0084544085,488.10086,6.386599,0.4947874,0.46271116,0.1744278,0.13220516,inf,inf,inf,inf,1,1,1,1,2,0,2,1,3,1,1,1,0,0
154184000,154184000,908000,47.3977508,8.5456073,-34.519913,-3.179229,-6.2446685,-2.805882e-05,0.0072953366,0.0,0.1149193,0.052178074,-0.020171063,0.012276538,0.00071164995,-0.0002852638,-0.011124978,-1.8505495,-0.09999689,-0.0488935,1.642663,-0.0084544085,488.10086,6.3706613,0.4631009,0.45775262,0.1608031,0.12847461,inf,inf,inf,inf,1,1,1,1,2,0,2,1,3,1,1,1,0,0
154680000,154680000,908000,47.3977508,8.5456073,-34.64336,-3.1856914,-6.2371774,-2.805882e-05,0.0072953366,0.0,-0.786116,-0.017552769,-0.027857475,0.0070068142,0.00071164995,-0.0002852638,-0.011124978,-1.8196529,-0.15742235,-0.04528835,1.643074,-0.0084544085,488.10086,6.36317,0.47277588,0.46134612,0.16540454,0.12990858,inf,inf,inf,inf,1,1,1,1,2,0,2,1,3,1,1,1,0,0
155184000,155184000,908000,47.3977508,8.5456073,-35.20787,-3.2275956,-6.242123,-2.805882e-05,0.0072953366,0.0,-1.5745163,-0.08704875,-0.030885428,-0.0029548537,0.00071164995,-0.0002852638,-0.011124978,-1.3441017,-0.08827102,-0.0018356367,1.643673,-0.0084544085,488.10086,6.368116,0.44624853,0.45281065,0.15607357,0.12573928,inf,inf,inf,inf,1,1,1,1,2,0,2,1,3,1,1,1,0,0
155680000,155680000,908000,47.3977508,8.5456073,-36.083122,-3.3002675,-6.253491,-2.805882e-05,0.0072953366,0.0,-2.032815,-0.12873721,-0.034931187,-0.01438112,0.00071164995,-0.0002852638,-0.011124978,-0.51560754,-0.011910327,0.017785465,1.6438196,-0.0084544085,488.10086,6.3794837,0.4574622,0.45649177,0.16219321,0.12755871,inf,inf,inf,inf,1,1,1,1,2,0,2,1,3,1,1,1,0,0
156184000,156184000,908000,47.3977508,8.5456073,-37.128384,-3.3883946,-6.2690077,-2.805882e-05,0.0072953366,0.0,-2.0712087,-0.13932826,-0.029613718,-0.016194358,0.00071164995,-0.0002852638,-0.011124978,0.35618368,0.020934442,-0.00061839813,1.6438088,-0.0084544085,488.10086,6.3950005,0.47003955,0.45711008,0.1670902,0.12914647,inf,inf,inf,inf,1,1,1,1,2,0,2,1,3,1,1,1,0,0
156680000,156680000,908000,47.3977508,8.5456073,-38.085903,-3.466453,-6.277468,-2.805882e-05,0.0072953366,0.0,-1.6790243,-0.11356181,-0.012390243,-0.001598606,0.00071164995,-0.0002852638,-0.011124978,1.1914539,0.12553728,0.05368795,1.6431884,-0.0084544085,488.10086,6.403461,0.4823383,0.46102154,0.1708715,0.1311134,inf,inf,inf,inf,1,1,1,1,2,0,2,1,3,1,1,1,0,0
157184000,157184000,908000,47.3977508,8.5456073,-38.783207,-3.5250993,-6.280895,-2.805882e-05,0.0072953366,0.0,-0.93962085,-0.054770596,0.011396406,0.015436206,0.00071164995,-0.0002852638,-0.011124978,1.7168701,0.10811738,-0.0024717299,1.6427441,-0.0084544085,488.10086,6.406888,0.4546341,0.4564463,0.15930882,0.1277454,inf,inf,inf,inf,1,1,1,1,2,0,2,1,3,1,1,1,0,0
157680000,157680000,908000,47.3977508,8.5456073,-39.059803,-3.553676,-6.277319,-2.805882e-05,0.0072953366,0.0,-0.048201744,0.017512426,0.0049799425,0.0068091583,0.00071164995,-0.0002852638,-0.011124978,1.8329583,0.13517472,-0.013244337,1.6421908,-0.0084544085,488.10086,6.4033117,0.46835724,0.4567557,0.16723265,0.12933491,inf,inf,inf,inf,1,1,1,1,2,0,2,1,3,1,1,1,0,0
158184000,158184000,908000,47.3977508,8.5456073,-38.88545,-3.5481706,-6.269438,-2.805882e-05,0.0072953366,0.0,0.79584086,0.09019862,-0.006004977,0.002240498,0.00071164995,-0.0002852638,-0.011124978,1.4518822,0.14078693,-0.0559343,1.6416563,-0.0084544085,488.10086,6.3954306,0.44518209,0.44918087,0.15999514,0.12577806,inf,inf,inf,inf,1,1,1,1,2,0,2,1,3,1,1,1,0,0
158680000,158680000,908000,47.3977508,8.5456073,-38.343983,-3.510736,-6.2687654,-2.805882e-05,0.0072953366,0.0,1.359376,0.14309625,-0.019150296,-0.008325019,0.00071164995,-0.0002852638,-0.011124978,0.75645727,0.06739949,-0.0029494984,1.6410279,-0.0084544085,488.10086,6.394758,0.45731568,0.45334378,0.16645822,0.12769632,inf,inf,inf,inf,1,1,1,1,2,0,2,1,3,1,1,1,0,0
159184000,159184000,908000,47.3977508,8.5456073,-37.58685,-3.4564795,-6.2721157,-2.805882e-05,0.0072953366,0.0,1.5228789,0.16155684,-0.028288467,-0.014613412,0.00071164995,-0.0002852638,-0.011124978,-0.14320835,0.03616848,-0.0023264436,1.6409866,-0.0084544085,488.10086,6.3981085,0.47079325,0.45465237,0.17125101,0.12939633,inf,inf,inf,inf,1,1,1,1,2,0,2,1,3,1,1,1,0,0
159680000,159680000,908000,47.3977508,8.5456073,-36.857147,-3.4020603,-6.2701845,-2.805882e-05,0.0072953366,0.0,1.2386798,0.15050039,-0.016987562,0.0019450054,0.00071164995,-0.0002852638,-0.011124978,-1.0235566,-0.032304667,0.015694646,1.6416781,-0.0084544085,488.10086,6.3961773,0.48372728,0.45922288,0.1740125,0.1314759,inf,inf,inf,inf,1,1,1,1,2,0,2,1,3,1,1,1,0,0
160184000,160184000,908000,47.3977508,8.5456073,-36.34548,-3.365897,-6.255903,-2.805882e-05,0.0072953366,0.0,0.5709613,0.09943698,-0.010058118,0.01605016,0.00071164995,-0.0002852638,-0.011124978,-1.6685559,-0.10132343,-0.015851108,1.6418866,-0.0084544085,488.10086,6.3818955,0.45549056,0.4513899,0.16014023,0.12765194,inf,inf,inf,inf,1,1,1,1,2,0,2,1,3,1,1,1,0,0
160680000,160680000,908000,47.3977508,8.5456073,-36.2178,-3.3525212,-6.242698,-2.805882e-05,0.0072953366,0.0,-0.3053969,0.03184216,-0.02103592,0.011290966,0.00071164995,-0.0002852638,-0.011124978,-1.9163444,-0.11131279,-0.036609355,1.6427442,-0.0084544085,488.10086,6.368691,0.46650416,0.45554763,0.16407576,0.12935512,inf,inf,inf,inf,1,1,1,1,2,0,2,1,3,1,1,1,0,0
161184000,161184000,908000,47.3977508,8.5456073,-36.55164,-3.3690426,-6.2314467,-2.805882e-05,0.0072953366,0.0,-1.1993097,-0.042158943,-0.034378808,0.0043250616,0.00071164995,-0.0002852638,-0.011124978,-1.6588424,-0.10826073,-0.035312023,1.6435848,-0.0084544085,488.10086,6.3574395,0.47851804,0.46041077,0.16970314,0.13104516,inf,inf,inf,inf,1,1,1,1,2,0,2,1,3,1,1,1,0,0
161680000,161680000,908000,47.3977508,8.5456073,-37.284927,-3.4097626,-6.2221994,-2.805882e-05,0.0072953366,0.0,-1.8668029,-0.099902585,-0.05397422,-0.0077394806,0.00071164995,-0.0002852638,-0.011124978,-1.0044954,-0.12322983,-0.086446285,1.6441259,-0.0084544085,488.10086,6.348192,0.48996803,0.46451974,0.17513515,0.13247323,inf,inf,inf,inf,1,1,1,1,2,0,2,1,3,1,1,1,0,0
162184000,162184000,908000,47.3977508,8.5456073,-38.293556,-3.4719326,-6.2273507,-2.805882e-05,0.0072953366,0.0,-2.1605308,-0.13093336,-0.06517457,-0.018037124,0.00071164995,-0.0002852638,-0.011124978,-0.17514667,0.0021278537,0.013214535,1.644179,-0.0084544085,488.10086,6.3533435,0.459666,0.45576805,0.1623385,0.12810288,inf,inf,inf,inf,1,1,1,1,2,0,2,1,3,1,1,1,0,0
162680000,162680000,908000,47.3977508,8.5456073,-39.33311,-3.545778,-6.2224097,-2.805882e-05,0.0072953366,0.0,-2.008073,-0.13384059,-0.071640395,-0.013585449,0.00071164995,-0.0002852638,-0.011124978,0.73278654,0.065245606,-0.05967542,1.6437846,-0.0084544085,488.10086,6.3484025,0.46988666,0.4595165,0.16541825,0.12970427,inf,inf,inf,inf,1,1,1,1,2,0,2,1,3,1,1,1,0,0
163184000,163184000,908000,47.3977508,8.5456073,-40.21591,-3.6114812,-6.222083,-2.805882e-05,0.0072953366,0.0,-1.4366056,-0.09655774,-0.05485257,0.0043972977,0.00071164995,-0.0002852638,-0.011124978,1.4770707,0.101933464,0.03014039,1.6436099,-0.0084544085,488.10086,6.348076,0.48137522,0.45998403,0.16887008,0.13093892,inf,inf,inf,inf,1,1,1,1,2,0,2,1,3,1,1,1,0,0
163680000,163680000,908000,47.3977508,8.5456073,-40.7403,-3.653424,-6.218891,-2.805882e-05,0.0072953366,0.0,-0.60174346,-0.040672358,-0.048113037,0.00812148,0.00071164995,-0.0002852638,-0.011124978,1.8726337,0.14240107,-0.02328772,1.6429322,-0.0084544085,488.10086,6.344884,0.49240264,0.4636879,0.17345537,0.13242048,inf,inf,inf,inf,1,1,1,1,2,0,2,1,3,1,1,1,0,0
164184000,164184000,908000,47.3977508,8.5456073,-40.820423,-3.6663413,-6.221313,-2.805882e-05,0.0072953366,0.0,0.31780878,0.029700967,-0.05213995,-0.00090529793,0.00071164995,-0.0002852638,-0.011124978,1.758271,0.13251106,-0.042342577,1.642336,-0.0084544085,488.10086,6.347306,0.46126696,0.4548348,0.16259316,0.12796967,inf,inf,inf,inf,1,1,1,1,2,0,2,1,3,1,1,1,0,0
164680000,164680000,908000,47.3977508,8.5456073,-40.48974,-3.6370018,-6.2332377,-2.805882e-05,0.0072953366,0.0,1.055106,0.09299494,-0.04904491,-0.00790605,0.00071164995,-0.0002852638,-0.011124978,1.2171184,0.10539656,-0.023187136,1.6420034,-0.0084544085,488.10086,6.3592305,0.47126067,0.45855668,0.16850412,0.12935928,inf,inf,inf,inf,1,1,1,1,2,0,2,1,3,1,1,1,0,0
165184000,165184000,908000,47.3977508,8.5456073,-39.84901,-3.5790668,-6.2478747,-2.805882e-05,0.0072953366,0.0,1.4603405,0.12938163,-0.047291875,-0.015295129,0.00071164995,-0.0002852638,-0.011124978,0.39808792,0.018065037,-0.019573605,1.6419266,-0.0084544085,488.10086,6.3738675,0.4826295,0.4593217,0.17353354,0.1305289,inf,inf,inf,inf,1,1,1,1,2,0,2,1,3,1,1,1,0,0
165680000,165680000,908000,47.3977508,8.5456073,-39.100845,-3.50917,-6.250521,-2.805882e-05,0.0072953366,0.0,1.4307876,0.13138488,-0.044952873,-0.009267967,0.00071164995,-0.0002852638,-0.011124978,-0.5385984,-0.043589503,0.021618789,1.6420525,-0.0084544085,488.10086,6.376514,0.4936105,0.46334583,0.17645384,0.13218477,inf,inf,inf,inf,1,1,1,1,2,0,2,1,3,1,1,1,0,0
166184000,166184000,908000,47.3977508,8.5456073,-38.44814,-3.4388027,-6.2546406,-2.805882e-05,0.0072953366,0.0,0.969743,0.09927297,-0.026354073,0.006750877,0.00071164995,-0.0002852638,-0.011124978,-1.3009266,-0.102663055,0.0707535,1.6424304,-0.0084544085,488.10086,6.3806334,0.46207508,0.4546889,0.16145778,0.12804392,inf,inf,inf,inf,1,1,1,1,2,0,2,1,3,1,1,1,0,0
166680000,166680000,908000,47.3977508,8.5456073,-38.098778,-3.3955903,-6.2452703,-2.805882e-05,0.0072953366,0.0,0.20533037,0.037218772,-0.015216265,0.02022258,0.00071164995,-0.0002852638,-0.011124978,-1.7682686,-0.16922215,-0.038966533,1.6427027,-0.0084544085,488.10086,6.371263,0.47191113,0.45851922,0.1643336,0.12964971,inf,inf,inf,inf,1,1,1,1,2,0,2,1,3,1,1,1,0,0
167184000,167184000,908000,47.3977508,8.5456073,-38.169987,-3.3809268,-6.228638,-2.805882e-05,0.0072953366,0.0,-0.70432115,-0.04020398,-0.031741668,0.012165826,0.00071164995,-0.0002852638,-0.011124978,-1.8083203,-0.17002024,-0.061615366,1.6431087,-0.0084544085,488.10086,6.354631,0.4827536,0.4630557,0.16906016,0.13126086,inf,inf,inf,inf,1,1,1,1,2,0,2,1,3,1,1,1,0,0
167680000,167680000,908000,47.3977508,8.5456073,-38.694485,-3.395733,-6.23019,-2.805882e-05,0.0072953366,0.0,-1.5142809,-0.1116635,-0.040423013,-0.0016419822,0.00071164995,-0.0002852638,-0.011124978,-1.4175644,-0.13814275,-0.040537674,1.643764,-0.0084544085,488.10086,6.3561826,0.49327543,0.46277824,0.17454784,0.13203375,inf,inf,inf,inf,1,1,1,1,2,0,2,1,3,1,1,1,0,0
168184000,168184000,908000,47.3977508,8.5456073,-39.58408,-3.4417412,-6.2361817,-2.805882e-05,0.0072953366,0.0,-2.0397213,-0.16472909,-0.046880677,-0.011267089,0.00071164995,-0.0002852638,-0.011124978,-0.6549064,-0.09150577,0.015863216,1.6440539,-0.0084544085,488.10086,6.3621745,0.46192262,0.45772427,0.16241631,0.12812778,inf,inf,inf,inf,1,1,1,1,2,0,2,1,3,1,1,1,0,0
168680000,168680000,908000,47.3977508,8.5456073,-40.63724,-3.4902163,-6.2369566,-2.805882e-05,0.0072953366,0.0,-2.1422188,-0.18004666,-0.054187972,-0.013097893,0.00071164995,-0.0002852638,-0.011124978,0.2432498,-0.06801561,-0.088805325,1.6437651,-0.0084544085,488.10086,6.3629494,0.4715584,0.461244,0.16601136,0.12966646,inf,inf,inf,inf,1,1,1,1,2,0,2,1,3,1,1,1,0,0
169184000,169184000,908000,47.3977508,8.5456073,-41.65939,-3.5469263,-6.251236,-2.805882e-05,0.0072953366,0.0,-1.7941418,-0.16263324,-0.043956075,-0.010141576,0.00071164995,-0.0002852638,-0.011124978,1.1081457,0.040981088,0.044671815,1.6436111,-0.0084544085,488.10086,6.3772287,0.48257178,0.46148297,0.16931611,0.13092762,inf,inf,inf,inf,1,1,1,1,2,0,2,1,3,1,1,1,0,0
169680000,169680000,908000,47.3977508,8.5456073,-42.413246,-3.5914888,-6.258254,-2.805882e-05,0.0072953366,0.0,-1.095274,-0.118213676,-0.012895269,0.012291694,0.00071164995,-0.0002852638,-0.011124978,1.6908389,0.117251106,0.026061198,1.6433715,-0.0084544085,488.10086,6.384247,0.4932425,0.46502572,0.17302695,0.13250333,inf,inf,inf,inf,1,1,1,1,2,0,2,1,3,1,1,1,0,0
170184000,170184000,908000,47.3977508,8.5456073,-42.77347,-3.6044242,-6.262469,-2.805882e-05,0.0072953366,0.0,-0.18780561,-0.050126515,-0.0051406436,0.010252863,0.00071164995,-0.0002852638,-0.011124978,1.8830248,0.12089371,0.011637806,1.6431354,-0.0084544085,488.10086,6.3884616,0.46186596,0.45590764,0.16163309,0.12810013,inf,inf,inf,inf,1,1,1,1,2,0,2,1,3,1,1,1,0,0
170680000,170680000,908000,47.3977508,8.5456073,-42.688564,-3.5882924,-6.261813,-2.805882e-05,0.0072953366,0.0,0.6725211,0.019724099,-0.010910025,0.0033904829,0.00071164995,-0.0002852638,-0.011124978,1.6177216,0.103575066,-0.017545184,1.6430233,-0.0084544085,488.10086,6.387806,0.4716283,0.45937458,0.16780962,0.12946643,inf,inf,inf,inf,1,1,1,1,2,0,2,1,3,1,1,1,0,0
171184000,171184000,908000,47.3977508,8.5456073,-42.20285,-3.5509572,-6.2630205,-2.805882e-05,0.0072953366,0.0,1.304241,0.06974628,-0.02032141,-0.0058676177,0.00071164995,-0.0002852638,-0.011124978,0.90850735,0.04537917,-0.013341195,1.6425585,-0.0084544085,488.10086,6.3890133,0.4827991,0.45973715,0.17387392,0.13048826,inf,inf,inf,inf,1,1,1,1,2,0,2,1,3,1,1,1,0,0
171680000,171680000,908000,47.3977508,8.5456073,-41.485485,-3.5008225,-6.2720113,-2.805882e-05,0.0072953366,0.0,1.5399406,0.09216641,-0.025857778,-0.0147214355,0.00071164995,-0.0002852638,-0.011124978,-0.00074319536,0.013628857,0.035376284,1.6420863,-0.0084544085,488.10086,6.398004,0.49370393,0.46348095,0.17785217,0.13200204,inf,inf,inf,inf,1,1,1,1,2,0,2,1,3,1,1,1,0,0
172184000,172184000,908000,47.3977508,8.5456073,-40.72972,-3.4454424,-6.285452,-2.805882e-05,0.0072953366,0.0,1.3335503,0.083501734,-0.007770013,-0.003621878,0.00071164995,-0.0002852638,-0.011124978,-0.8712651,-0.06438982,0.06761774,1.6422865,-0.0084544085,488.10086,6.4114447,0.4621303,0.45845154,0.16276844,0.12832116,inf,inf,inf,inf,1,1,1,1,2,0,2,1,3,1,1,1,0,0
