timestamp,timestamp_sample,ref_timestamp,ref_lat,ref_lon,x,y,z,delta_xy[0],delta_xy[1],delta_z,vx,vy,vz,z_deriv,delta_vxy[0],delta_vxy[1],delta_vz,ax,ay,az,heading,delta_heading,ref_alt,dist_bottom,eph,epv,evh,evv,vxy_max,vz_max,hagl_min,hagl_max,xy_valid,z_valid,v_xy_valid,v_z_valid,xy_reset_counter,z_reset_counter,vxy_reset_counter,vz_reset_counter,heading_reset_counter,heading_good_for_control,xy_global,z_global,dist_bottom_valid,dist_bottom_sensor_bitfield
8688000,8688000,908000,47.3977508,8.5456073,-0.0005320516,0.007746297,0.024429549,2.5823436e-05,0.0073877177,0.0,-0.0006575696,-0.0029648312,-4.8303616e-05,-0.0014358781,0.0008346232,-0.00024752718,-0.010746645,0.0005750334,-0.015777128,0.005992129,1.6201061,0.0024111874,488.08807,0.1,0.47141692,0.30350718,0.020343613,0.014390419,inf,inf,inf,inf,1,1,1,1,2,0,2,1,2,0,1,1,1,0
9184000,9184000,908000,47.3977508,8.5456073,-0.0011450498,0.008190667,0.02337087,2.5823436e-05,0.0073877177,0.0,-0.0015159606,0.0004256429,0.0004979986,-0.0007146523,0.0008346232,-0.00024752718,-0.010746645,-0.025235465,0.0099805035,-0.026627442,1.6202613,0.0024111874,488.08807,0.1,0.44722503,0.29373088,0.01077945,0.007636746,inf,inf,inf,inf,1,1,1,1,2,0,2,1,2,0,1,1,1,0
9688000,9688000,908000,47.3977508,8.5456073,-0.0024235805,0.008860819,0.021812888,2.5823436e-05,0.0073877177,0.0,-0.0032646845,0.00016736945,-9.7059106e-05,-0.002277264,0.0008346232,-0.00024752718,-0.010746645,0.025210377,0.024738532,-0.019303521,1.6194724,0.0024111874,488.08807,0.1,0.426417,0.28579405,0.017684406,0.012567825,inf,inf,inf,inf,1,1,1,1,2,0,2,1,2,0,1,1,1,0
10184000,10184000,908000,47.3977508,8.5456073,-0.0017025946,0.009198948,0.021374391,2.5823436e-05,0.0073877177,0.0,-0.0024898506,0.0026496963,-0.00057638163,-0.0020784528,0.0008346232,-0.00024752718,-0.010746645,0.041605815,0.0008744682,0.00077579165,1.6198217,0.0024111874,488.08807,0.10015306,0.39224756,0.27758884,0.0058073453,0.0041102935,inf,inf,inf,inf,1,1,1,1,2,0,2,1,2,0,1,1,1,0
10688000,10688000,908000,47.3977508,8.5456073,-0.0009258716,0.009186541,0.019424887,2.5823436e-05,0.0073877177,0.0,0.0013168965,0.00064027694,0.00041614857,-0.0015990882,0.0008346232,-0.00024752718,-0.010746645,-0.0038115976,0.019712199,0.014659016,1.6200279,0.0024111874,488.08807,0.1,0.37798288,0.27086082,0.014822336,0.010546335,inf,inf,inf,inf,1,1,1,1,2,0,2,1,2,0,1,1,1,0
11184000,11184000,908000,47.3977508,8.5456073,-0.0002768318,0.009083185,0.020494003,2.5823436e-05,0.0073877177,0.0,0.00090666866,0.0014338591,-0.00061089965,-0.0009445813,0.0008346232,-0.00024752718,-0.010746645,-0.02491119,-0.029144531,-0.005229376,1.6189504,0.0024111874,488.08807,0.101602614,0.36517382,0.26460245,0.020139359,0.0143925715,inf,inf,inf,inf,1,1,1,1,2,0,2,1,2,0,1,1,1,0
11688000,11688000,908000,47.3977508,8.5456073,-0.00083401613,0.0087810075,0.020519774,2.5823436e-05,0.0073877177,0.0,-0.0017939449,-0.0002557571,-0.00027759286,-0.00015995641,0.0008346232,-0.00024752718,-0.010746645,0.0051873648,-0.010381685,0.0115614375,1.6183594,0.0024111874,488.08807,0.1003871,0.35357782,0.2580494,0.011508399,0.008179407,inf,inf,inf,inf,1,1,1,1,2,0,2,1,2,0,1,1,1,0
12184000,12184000,908000,47.3977508,8.5456073,-0.00075357367,0.008368556,0.020078473,2.5823436e-05,0.0073877177,0.0,-0.00019756562,0.0024956132,0.0011918899,0.00021448662,0.0008346232,-0.00024752718,-0.010746645,-0.015976924,0.020456105,0.011825933,1.61795,0.0024111874,488.08807,0.10013867,0.3334034,0.2526489,0.02912045,0.020978428,inf,inf,inf,inf,1,1,1,1,2,0,2,1,2,0,1,1,1,0
12688000,12688000,908000,47.3977508,8.5456073,0.0007904795,0.008855892,0.01943245,2.5823436e-05,0.0073877177,0.0,0.0044234837,0.0008863248,0.0036409623,0.0017464187,0.0008346232,-0.00024752718,-0.010746645,-0.008459915,0.027706962,-0.008222646,1.6167018,0.0024111874,488.08807,0.1007847,0.3253128,0.24747267,0.051899012,0.037313122,inf,inf,inf,inf,1,1,1,1,2,0,2,1,2,0,1,1,1,0
13184000,13184000,908000,47.3977508,8.5456073,0.0039278106,0.0097957915,0.02029182,2.5823436e-05,0.0073877177,0.0,0.009086122,0.0019039179,0.0076196482,0.0052630464,0.0008346232,-0.00024752718,-0.010746645,-0.0058815638,-0.0021459998,0.014074146,1.6154217,0.0024111874,488.08807,0.1,0.31228262,0.24477708,0.07246255,0.051564645,inf,inf,inf,inf,1,1,1,1,2,0,2,1,2,0,1,1,1,0
13688000,13688000,908000,47.3977508,8.5456073,0.0076555707,0.010335378,0.01694233,2.5823436e-05,0.0073877177,0.0,0.00416182,-0.0049535492,-0.04394195,-0.047085207,0.0008346232,-0.00024752718,-0.010746645,-0.089010686,-0.17643869,-0.22685248,1.6173173,0.0024111874,488.08807,0.10366771,0.3124804,0.24478455,0.09394813,0.06539967,inf,inf,inf,inf,1,1,1,1,2,0,2,1,2,0,1,1,1,0
14184000,14184000,908000,47.3977508,8.5456073,-0.0059285974,-0.024822602,-0.062241953,2.5823436e-05,0.0073877177,0.0,-0.045897268,-0.11962623,-0.29171133,-0.29426986,0.0008346232,-0.00024752718,-0.010746645,-0.035956644,-0.028581712,-0.5457801,1.6203393,0.0024111874,488.08807,0.182852,0.319603,0.2498906,0.1160017,0.078310065,inf,inf,inf,inf,1,1,1,1,2,0,2,1,2,0,1,1,1,0
14688000,14688000,908000,47.3977508,8.5456073,-0.036187958,-0.07836279,-0.27272546,2.5823436e-05,0.0073877177,0.0,-0.047336444,-0.076089635,-0.5294693,-0.53173476,0.0008346232,-0.00024752718,-0.010746645,0.021641418,0.16786999,-0.40804034,1.6228873,0.0024111874,488.08807,0.39333552,0.33586383,0.26087195,0.13785896,0.090642184,inf,inf,inf,inf,1,1,1,1,2,0,2,1,2,0,1,1,1,0
15184000,15184000,908000,47.3977508,8.5456073,-0.061497897,-0.09799928,-0.5836455,2.5823436e-05,0.0073877177,0.0,-0.0211181,0.0018105598,-0.71106184,-0.7133606,0.0008346232,-0.00024752718,-0.010746645,0.0680906,0.15380812,-0.3314372,1.6252295,0.0024111874,488.08807,0.7042556,0.34291154,0.2745206,0.14682035,0.09927994,inf,inf,inf,inf,1,1,1,1,2,0,2,1,2,0,1,1,1,0
15688000,15688000,908000,47.3977508,8.5456073,-0.07413212,-0.091149665,-0.9840374,2.5823436e-05,0.0073877177,0.0,0.010876365,0.052464712,-0.8595825,-0.86420304,0.0008346232,-0.00024752718,-0.010746645,0.088783406,0.09912493,-0.23591425,1.6269678,0.0024111874,488.08807,1.1046474,0.36876887,0.29520056,0.16135901,0.10879768,inf,inf,inf,inf,1,1,1,1,2,0,2,1,2,0,1,1,1,0
16184000,16184000,908000,47.3977508,8.5456073,-0.0750134,-0.062251877,-1.446764,2.5823436e-05,0.0073877177,0.0,0.03385594,0.08354263,-0.9682296,-0.97753304,0.0008346232,-0.00024752718,-0.010746645,0.035449963,0.00037741844,-0.21619907,1.6288421,0.0024111874,488.08807,1.567374,0.39696798,0.318764,0.17264897,0.11674475,inf,inf,inf,inf,1,1,1,1,2,0,2,1,2,0,1,1,1,0
16688000,16688000,908000,47.3977508,8.5456073,-0.07272165,-0.02262196,-1.966802,2.5823436e-05,0.0073877177,0.0,0.04785703,0.08607168,-1.0514065,-1.0645434,0.0008346232,-0.00024752718,-0.010746645,0.021381622,-0.011019452,-0.11449865,1.6285344,-0.006367456,488.08807,2.087412,0.4249801,0.34312615,0.23877883,0.12316203,inf,inf,inf,inf,1,1,1,1,2,0,2,1,3,0,1,1,1,0
17184000,17184000,908000,47.3977508,8.5456073,-0.07611568,-0.006978187,-2.5152779,2.5823436e-05,0.0073877177,0.0,0.047020886,0.054406278,-1.1161801,-1.1316414,0.0008346232,-0.00024752718,-0.010746645,0.054725107,-0.024575826,-0.10176654,1.6308608,-0.006367456,488.08807,2.6358879,0.4146721,0.36009505,0.2792301,0.12350417,inf,inf,inf,inf,1,1,1,1,2,0,2,1,3,0,1,1,0,0
17688000,17688000,908000,47.3977508,8.5456073,-0.069208615,-0.0007398374,-3.1038597,2.5823436e-05,0.0073877177,0.0,0.05353211,0.041909475,-1.1667851,-1.1856732,0.0008346232,-0.00024752718,-0.010746645,0.024471387,0.014517921,-0.11904071,1.6328835,-0.006367456,488.08807,3.2244697,0.4384502,0.38143018,0.31545347,0.12686978,inf,inf,inf,inf,1,1,1,1,2,0,2,1,3,1,1,1,0,0
18184000,18184000,908000,47.3977508,8.5456073,-0.043073475,0.025990434,-3.70188,2.5823436e-05,0.0073877177,0.0,0.0626138,0.048483353,-1.2055887,-1.2239108,0.0008346232,-0.00024752718,-0.010746645,-0.030329347,-0.056669507,-0.10334141,1.6331955,-0.006367456,488.08807,3.82249,0.4634374,0.40226942,0.32334304,0.1295113,inf,inf,inf,inf,1,1,1,1,2,0,2,1,3,1,1,1,0,0
18688000,18688000,908000,47.3977508,8.5456073,-0.0073231827,0.048571665,-4.3303967,2.5823436e-05,0.0073877177,0.0,0.050938006,0.023049336,-1.2352458,-1.2558107,0.0008346232,-0.00024752718,-0.010746645,-0.0658914,-0.05300657,-0.049065795,1.6364743,-0.006367456,488.08807,4.451007,0.4894965,0.41889104,0.31947687,0.13100797,inf,inf,inf,inf,1,1,1,1,2,0,2,1,3,1,1,1,0,0
19184000,19184000,908000,47.3977508,8.5456073,0.026538683,0.061363705,-4.9705544,2.5823436e-05,0.0073877177,0.0,0.030404078,0.004619363,-1.2510929,-1.280532,0.0008346232,-0.00024752718,-0.010746645,-0.08541428,-0.013936674,-0.0025872139,1.6388985,-0.006367456,488.08807,5.0911646,0.45318842,0.4236017,0.24942857,0.12711985,inf,inf,inf,inf,1,1,1,1,2,0,2,1,3,1,1,1,0,0
19688000,19688000,908000,47.3977508,8.5456073,0.044998664,0.067105494,-5.624532,2.5823436e-05,0.0073877177,0.0,0.004845904,-0.005835804,-1.2686944,-1.3012575,0.0008346232,-0.00024752718,-0.010746645,-0.04560575,-0.018552236,-0.026861204,1.6412216,-0.006367456,488.08807,5.7451425,0.47180215,0.4346111,0.24688473,0.12777697,inf,inf,inf,inf,1,1,1,1,2,0,2,1,3,1,1,1,0,0
20184000,20184000,908000,47.3977508,8.5456073,0.047066644,0.06960353,-6.2084208,2.5823436e-05,0.0073877177,0.0,-0.022751316,-0.023330828,-0.66203594,-0.69856524,0.0008346232,-0.00024752718,-0.010746645,-0.07399492,-0.10438052,3.3684049,1.6428549,-0.006367456,488.08807,6.329031,0.48875982,0.44601458,0.24125178,0.12871575,inf,inf,inf,inf,1,1,1,1,2,0,2,1,3,1,1,1,0,0
20688000,20688000,908000,47.3977508,8.5456073,0.04154178,0.066081606,-6.287015,2.5823436e-05,0.0073877177,0.0,-0.02986666,-0.029187392,0.065393925,0.007804935,0.0008346232,-0.00024752718,-0.010746645,0.0159209,-0.010045259,-1.2095691,1.643382,-0.006367456,488.08807,6.407625,0.50613904,0.456472,0.23600283,0.1298036,inf,inf,inf,inf,1,1,1,1,2,0,2,1,3,1,1,1,0,0
21184000,21184000,908000,47.3977508,8.5456073,0.03395661,0.07147854,-6.323478,2.5823436e-05,0.0073877177,0.0,-0.022720678,-0.025434416,-0.041866694,-0.08616309,0.0008346232,-0.00024752718,-0.010746645,0.02160188,-0.013853102,0.077847384,1.642688,-0.006367456,488.08807,6.4440885,0.46746483,0.44971588,0.20068416,0.12511115,inf,inf,inf,inf,1,1,1,1,2,0,2,1,3,1,1,1,0,0
21688000,21688000,908000,47.3977508,8.5456073,0.0015992796,0.07206797,-6.3495474,2.5823436e-05,0.0073877177,0.0,-0.25070193,-0.044765018,-0.0065403306,-0.042582147,0.0008346232,-0.00024752718,-0.010746645,-0.9825372,-0.085715406,0.084614374,1.6427857,-0.006367456,488.08807,6.4701576,0.48159292,0.45754084,0.19975927,0.12648067,inf,inf,inf,inf,1,1,1,1,2,0,2,1,3,1,1,1,0,0
22184000,22184000,908000,47.3977508,8.5456073,-0.23863906,0.06320807,-6.362041,2.5823436e-05,0.0073877177,0.0,-0.85416675,-0.08978789,0.002469046,-0.031632178,0.0008346232,-0.00024752718,-0.010746645,-1.4757351,-0.097375214,-0.033800486,1.6423448,-0.006367456,488.08807,6.482651,0.49460506,0.45966142,0.1996247,0.12712377,inf,inf,inf,inf,1,1,1,1,2,0,2,1,3,1,1,1,0,0
22688000,22688000,908000,47.3977508,8.5456073,-0.84728,0.033520754,-6.4041586,2.5823436e-05,0.0073877177,0.0,-1.638228,-0.1525567,-0.103275254,-0.14013058,0.0008346232,-0.00024752718,-0.010746645,-1.6011192,-0.16574249,-0.2760179,1.6430455,-0.006367456,488.08807,6.524769,0.5085873,0.4657111,0.20217213,0.12872864,inf,inf,inf,inf,1,1,1,1,2,0,2,1,3,1,1,1,0,0
23184000,23184000,908000,47.3977508,8.5456073,-1.8222345,-0.014016721,-6.506226,2.5823436e-05,0.0073877177,0.0,-2.3270767,-0.21003848,-0.25928897,-0.2900782,0.0008346232,-0.00024752718,-0.010746645,-1.1586905,-0.14792556,-0.23256241,1.642815,-0.006367456,488.08807,6.6268363,0.47106084,0.45626998,0.18162976,0.12480417,inf,inf,inf,inf,1,1,1,1,2,0,2,1,3,1,1,1,0,0
23688000,23688000,908000,47.3977508,8.5456073,-3.102092,-0.08304351,-6.666729,2.5823436e-05,0.0073877177,0.0,-2.705438,-0.2510967,-0.16811365,-0.21183416,0.0008346232,-0.00024752718,-0.010746645,-0.3213426,-0.088050716,0.6015505,1.6422536,-0.006367456,488.08807,6.787339,0.4830616,0.46113494,0.18321276,0.12696898,inf,inf,inf,inf,1,1,1,1,2,0,2,1,3,1,1,1,0,0
24184000,24184000,908000,47.3977508,8.5456073,-4.460029,-0.17698747,-6.728842,2.5823436e-05,0.0073877177,0.0,-2.6724951,-0.27274036,0.030043473,-0.022481643,0.0008346232,-0.00024752718,-0.010746645,0.50475925,-0.031643588,0.28614232,1.6429522,-0.006367456,488.08807,6.849452,0.49434498,0.4650153,0.18214881,0.12927203,inf,inf,inf,inf,1,1,1,1,2,0,2,1,3,1,1,1,0,0
24688000,24688000,908000,47.3977508,8.5456073,-5.728285,-0.28589034,-6.7175226,2.5823436e-05,0.0073877177,0.0,-2.2224069,-0.26051283,0.12955852,0.07513787,0.0008346232,-0.00024752718,-0.010746645,1.3047829,0.05277831,0.17005856,1.6427459,-0.006367456,488.08807,6.838133,0.5064144,0.4654757,0.18308756,0.13123879,inf,inf,inf,inf,1,1,1,1,2,0,2,1,3,1,1,1,0,0
25184000,25184000,908000,47.3977508,8.5456073,-6.6898427,-0.38787273,-6.678513,2.5823436e-05,0.0073877177,0.0,-1.4505918,-0.21112491,0.17084193,0.10739269,0.0008346232,-0.00024752718,-0.010746645,1.8375405,0.11478905,0.0831522,1.6430441,-0.006367456,488.08807,6.7991233,0.47069398,0.45573634,0.17091413,0.12754986,inf,inf,inf,inf,1,1,1,1,2,0,2,1,3,1,1,1,0,0
25688000,25688000,908000,47.3977508,8.5456073,-7.219229,-0.48018476,-6.636417,2.5823436e-05,0.0073877177,0.0,-0.50191593,-0.13996997,0.1819488,0.10572278,0.0008346232,-0.00024752718,-0.010746645,1.9339935,0.19010146,0.039002854,1.6421517,-0.006367456,488.08807,6.757027,0.48142287,0.4602819,0.18483791,0.12955113,inf,inf,inf,inf,1,1,1,1,2,0,2,1,3,1,1,1,0,0
26184000,26184000,908000,47.3977508,8.5456073,-7.2608695,-0.54943,-6.599631,2.5823436e-05,0.0073877177,0.0,0.38192463,-0.057374492,0.17027245,0.08574331,0.0008346232,-0.00024752718,-0.010746645,1.6219593,0.17102247,0.014054588,1.6410131,-0.006367456,488.08807,6.720241,0.49195683,0.4641147,0.19923408,0.13102278,inf,inf,inf,inf,1,1,1,1,2,0,2,1,3,1,1,1,0,0
26688000,26688000,908000,47.3977508,8.5456073,-6.895944,-0.5902154,-6.5557346,2.5823436e-05,0.0073877177,0.0,1.0157211,0.023228485,0.15509771,0.07629785,0.0008346232,-0.00024752718,-0.010746645,0.8816634,0.19312817,-0.014539807,1.6399137,-0.006367456,488.08807,6.676345,0.50448096,0.46453518,0.20804402,0.13189104,inf,inf,inf,inf,1,1,1,1,2,0,2,1,3,1,1,1,0,0
27184000,27184000,908000,47.3977508,8.5456073,-6.3153887,-0.60201335,-6.5331645,2.5823436e-05,0.0073877177,0.0,1.2335718,0.09365268,0.14569443,0.059809204,0.0008346232,-0.00024752718,-0.010746645,0.008585513,0.16660431,-0.0026319174,1.6392697,-0.006367456,488.08807,6.6537747,0.46918678,0.4588057,0.18356182,0.12787339,inf,inf,inf,inf,1,1,1,1,2,0,2,1,3,1,1,1,0,0
27688000,27688000,908000,47.3977508,8.5456073,-5.7164845,-0.5733167,-6.508984,2.5823436e-05,0.0073877177,0.0,0.9976711,0.13088116,0.14476404,0.05507395,0.0008346232,-0.00024752718,-0.010746645,-0.9118235,0.030577108,0.10967906,1.6409276,-0.006367456,488.08807,6.6295943,0.4804003,0.45912665,0.18132183,0.12900676,inf,inf,inf,inf,1,1,1,1,2,0,2,1,3,1,1,1,0,0
28184000,28184000,908000,47.3977508,8.5456073,-5.3309307,-0.5347561,-6.4776087,2.5823436e-05,0.0073877177,0.0,0.3892062,0.10250212,0.14906035,0.06222082,0.0008346232,-0.00024752718,-0.010746645,-1.5275812,-0.09388123,-0.035722736,1.6421235,-0.006367456,488.08807,6.598219,0.4909841,0.4626545,0.180378,0.13060102,inf,inf,inf,inf,1,1,1,1,2,0,2,1,3,1,1,1,0,0
28688000,28688000,908000,47.3977508,8.5456073,-5.3169174,-0.49935368,-6.447798,2.5823436e-05,0.0073877177,0.0,-0.4640071,0.03756672,0.1307541,0.048776668,0.0008346232,-0.00024752718,-0.010746645,-1.8201244,-0.1776104,-0.018025747,1.6440729,-0.006367456,488.08807,6.568408,0.50274795,0.46291658,0.18679132,0.1318498,inf,inf,inf,inf,1,1,1,1,2,0,2,1,3,1,1,1,0,0
29184000,29184000,908000,47.3977508,8.5456073,-5.73208,-0.4897526,-6.4350467,2.5823436e-05,0.0073877177,0.0,-1.3112913,-0.050375376,0.12335897,0.035578616,0.0008346232,-0.00024752718,-0.010746645,-1.6388563,-0.18405,-0.0024270264,1.6434892,-0.006367456,488.08807,6.555657,0.46848756,0.45720366,0.17764708,0.12809609,inf,inf,inf,inf,1,1,1,1,2,0,2,1,3,1,1,1,0,0
29688000,29688000,908000,47.3977508,8.5456073,-6.5628295,-0.50017923,-6.4183636,2.5823436e-05,0.0073877177,0.0,-1.9744874,-0.122657575,0.104709096,0.01990412,0.0008346232,-0.00024752718,-0.010746645,-0.9875169,-0.17016783,0.0057807188,1.6424764,-0.006367456,488.08807,6.538974,0.4791041,0.4576729,0.18797375,0.12940991,inf,inf,inf,inf,1,1,1,1,2,0,2,1,3,1,1,1,0,0
30184000,30184000,908000,47.3977508,8.5456073,-7.639437,-0.5418489,-6.4116883,2.5823436e-05,0.0073877177,0.0,-2.2627654,-0.17772733,0.09178093,0.008299715,0.0008346232,-0.00024752718,-0.010746645,-0.15206209,-0.1075321,-0.013674608,1.6424801,-0.006367456,488.08807,6.5322986,0.48983678,0.46161056,0.19242729,0.13117951,inf,inf,inf,inf,1,1,1,1,2,0,2,1,3,1,1,1,0,0
30688000,30688000,908000,47.3977508,8.5456073,-8.790845,-0.6110325,-6.400261,2.5823436e-05,0.0073877177,0.0,-2.1138244,-0.20300062,0.08355273,0.008948506,0.0008346232,-0.00024752718,-0.010746645,0.7623737,-0.032270636,0.01844298,1.6426796,-0.006367456,488.08807,6.520871,0.5023612,0.46240193,0.19248992,0.13262804,inf,inf,inf,inf,1,1,1,1,2,0,2,1,3,1,1,1,0,0
31184000,31184000,908000,47.3977508,8.5456073,-9.776575,-0.6933226,-6.393173,2.5823436e-05,0.0073877177,0.0,-1.5683506,-0.19349104,0.096282676,0.022689544,0.0008346232,-0.00024752718,-0.010746645,1.4831957,0.0024686595,0.038439404,1.6427506,-0.006367456,488.08807,6.5137835,0.46809426,0.45694622,0.17267472,0.12891997,inf,inf,inf,inf,1,1,1,1,2,0,2,1,3,1,1,1,0,0
31688000,31688000,908000,47.3977508,8.5456073,-10.421015,-0.77215487,-6.37951,2.5823436e-05,0.0073877177,0.0,-0.7327537,-0.15261254,0.090632066,0.01885681,0.0008346232,-0.00024752718,-0.010746645,1.8617795,0.11063918,0.037798654,1.6430085,-0.006367456,488.08807,6.50012,0.47932822,0.45764595,0.18012439,0.13014504,inf,inf,inf,inf,1,1,1,1,2,0,2,1,3,1,1,1,0,0
32184000,32184000,908000,47.3977508,8.5456073,-10.618115,-0.83531225,-6.370496,2.5823436e-05,0.0073877177,0.0,0.16442728,-0.0921402,0.074883215,0.0056249355,0.0008346232,-0.00024752718,-0.010746645,1.7728443,0.15323019,-0.017189419,1.6425449,-0.006367456,488.08807,6.491106,0.49029505,0.46151605,0.1932196,0.13152947,inf,inf,inf,inf,1,1,1,1,2,0,2,1,3,1,1,1,0,0
32688000,32688000,908000,47.3977508,8.5456073,-10.374284,-0.8596493,-6.36304,2.5823436e-05,0.0073877177,0.0,0.93211585,-0.015136654,0.06541833,0.002597887,0.0008346232,-0.00024752718,-0.010746645,1.2563525,0.1656172,-0.008003785,1.6426034,-0.006367456,488.08807,6.48365,0.5032064,0.46609348,0.20600198,0.13301401,inf,inf,inf,inf,1,1,1,1,2,0,2,1,3,1,1,1,0,0
33184000,33184000,908000,47.3977508,8.5456073,-9.825003,-0.8484935,-6.3539867,2.5823436e-05,0.0073877177,0.0,1.352766,0.043362964,0.04697754,-0.0061420635,0.0008346232,-0.00024752718,-0.010746645,0.4576719,0.05643948,-0.045737248,1.642098,-0.006367456,488.08807,6.474597,0.46830705,0.46019578,0.18568464,0.1289254,inf,inf,inf,inf,1,1,1,1,2,0,2,1,3,1,1,1,0,0
33688000,33688000,908000,47.3977508,8.5456073,-9.135298,-0.81563234,-6.3571973,2.5823436e-05,0.0073877177,0.0,1.3451152,0.072284915,0.04537354,-0.007215603,0.0008346232,-0.00024752718,-0.010746645,-0.43311834,-0.009621522,0.035646368,1.6415956,-0.006367456,488.08807,6.4778075,0.4799517,0.4606341,0.18459314,0.13018712,inf,inf,inf,inf,1,1,1,1,2,0,2,1,3,1,1,1,0,0
34184000,34184000,908000,47.3977508,8.5456073,-8.553373,-0.77153105,-6.348448,2.5823436e-05,0.0073877177,0.0,0.910198,0.06816512,0.060586367,0.014551471,0.0008346232,-0.00024752718,-0.010746645,-1.2334478,-0.07076606,0.035399567,1.6429231,-0.006367456,488.08807,6.469058,0.4910732,0.4602898,0.18160468,0.13132237,inf,inf,inf,inf,1,1,1,1,2,0,2,1,3,1,1,1,0,0
34688000,34688000,908000,47.3977508,8.5456073,-8.253985,-0.7286932,-6.3316026,2.5823436e-05,0.0073877177,0.0,0.1455349,0.019934561,0.053474825,0.01554132,0.0008346232,-0.00024752718,-0.010746645,-1.765242,-0.15837425,-0.008642673,1.64369,-0.006367456,488.08807,6.452213,0.50318235,0.46481118,0.18389359,0.1331388,inf,inf,inf,inf,1,1,1,1,2,0,2,1,3,1,1,1,0,0
35184000,35184000,908000,47.3977508,8.5456073,-8.381176,-0.7051159,-6.321819,2.5823436e-05,0.0073877177,0.0,-0.7457406,-0.052556124,0.044865184,0.010360119,0.0008346232,-0.00024752718,-0.010746645,-1.8209652,-0.20098971,0.055654902,1.6434929,-0.006367456,488.08807,6.442429,0.46872813,0.45902565,0.17363201,0.12910403,inf,inf,inf,inf,1,1,1,1,2,0,2,1,3,1,1,1,0,0
35688000,35688000,908000,47.3977508,8.5456073,-8.954387,-0.71698993,-6.3154488,2.5823436e-05,0.0073877177,0.0,-1.5639063,-0.12850867,0.036651887,0.0034213727,0.0008346232,-0.00024752718,-0.010746645,-1.3983791,-0.16079116,-0.0014211981,1.6418446,-0.006367456,488.08807,6.436059,0.47951022,0.4594851,0.18509108,0.13009615,inf,inf,inf,inf,1,1,1,1,2,0,2,1,3,1,1,1,0,0
36184000,36184000,908000,47.3977508,8.5456073,-9.875312,-0.7561716,-6.320556,2.5823436e-05,0.0073877177,0.0,-2.0869427,-0.18264765,0.026219808,-0.01054996,0.0008346232,-0.00024752718,-0.010746645,-0.67436224,-0.13163728,-0.0132042905,1.6419263,-0.006367456,488.08807,6.4411664,0.4903367,0.46316817,0.1919845,0.13143295,inf,inf,inf,inf,1,1,1,1,2,0,2,1,3,1,1,1,0,0
36688000,36688000,908000,47.3977508,8.5456073,-10.992766,-0.8279554,-6.334835,2.5823436e-05,0.0073877177,0.0,-2.201912,-0.21379347,0.030673275,-0.013271172,0.0008346232,-0.00024752718,-0.010746645,0.24669214,-0.056861762,0.017959623,1.6430058,-0.006367456,488.08807,6.4554453,0.5027461,0.46760416,0.19253325,0.13304529,inf,inf,inf,inf,1,1,1,1,2,0,2,1,3,1,1,1,0,0
37184000,37184000,908000,47.3977508,8.5456073,-12.058165,-0.921656,-6.3550444,2.5823436e-05,0.0073877177,0.0,-1.8793899,-0.21999203,0.047693897,-0.009150935,0.0008346232,-0.00024752718,-0.010746645,1.1170704,0.022861756,0.067349516,1.6430032,-0.006367456,488.08807,6.4756546,0.4682027,0.4576164,0.16989097,0.1285606,inf,inf,inf,inf,1,1,1,1,2,0,2,1,3,1,1,1,0,0
37688000,37688000,908000,47.3977508,8.5456073,-12.89076,-1.0119472,-6.36275,2.5823436e-05,0.0073877177,0.0,-1.1869025,-0.18697302,0.07584203,0.010245146,0.0008346232,-0.00024752718,-0.010746645,1.6911348,0.102561526,0.112274654,1.6428547,-0.006367456,488.08807,6.4833603,0.4792746,0.4618097,0.17152974,0.13027915,inf,inf,inf,inf,1,1,1,1,2,0,2,1,3,1,1,1,0,0
38184000,38184000,908000,47.3977508,8.5456073,-13.30823,-1.0725414,-6.3701463,2.5823436e-05,0.0073877177,0.0,-0.3095414,-0.11975605,0.08585399,0.008650538,0.0008346232,-0.00024752718,-0.010746645,1.9038194,0.12751544,0.07322057,1.6429907,-0.006367456,488.08807,6.4907565,0.48980814,0.46130186,0.18019103,0.13115616,inf,inf,inf,inf,1,1,1,1,2,0,2,1,3,1,1,1,0,0
38688000,38688000,908000,47.3977508,8.5456073,-13.2622175,-1.099466,-6.3675227,2.5823436e-05,0.0073877177,0.0,0.5679436,-0.0412107,0.085334994,0.009655883,0.0008346232,-0.00024752718,-0.010746645,1.6005384,0.17281224,0.003410503,1.6431253,-0.006367456,488.08807,6.488133,0.50210625,0.46579283,0.19404364,0.13276312,inf,inf,inf,inf,1,1,1,1,2,0,2,1,3,1,1,1,0,0
39184000,39184000,908000,47.3977508,8.5456073,-12.8473425,-1.0941315,-6.373425,2.5823436e-05,0.0073877177,0.0,1.1886898,0.023294766,0.07708268,-0.0030974117,0.0008346232,-0.00024752718,-0.010746645,0.9482705,0.09484567,0.014848075,1.642526,-0.006367456,488.08807,6.4940352,0.46788397,0.45993933,0.18085082,0.1287562,inf,inf,inf,inf,1,1,1,1,2,0,2,1,3,1,1,1,0,0
39688000,39688000,908000,47.3977508,8.5456073,-12.173197,-1.0706048,-6.378493,2.5823436e-05,0.0073877177,0.0,1.4337673,0.063492,0.07151427,-0.009183518,0.0008346232,-0.00024752718,-0.010746645,0.045561463,0.02791814,0.06646755,1.6416327,-0.006367456,488.08807,6.499103,0.47925764,0.46025163,0.1835069,0.13002077,inf,inf,inf,inf,1,1,1,1,2,0,2,1,3,1,1,1,0,0
40184000,40184000,908000,47.3977508,8.5456073,-11.478335,-1.0388476,-6.3789077,2.5823436e-05,0.0073877177,0.0,1.2380959,0.07376582,0.07788393,0.00062461407,0.0008346232,-0.00024752718,-0.010746645,-0.8641802,-0.0037439894,0.049264167,1.6417321,-0.006367456,488.08807,6.499518,0.49019423,0.46382102,0.181006,0.13173419,inf,inf,inf,inf,1,1,1,1,2,0,2,1,3,1,1,1,0,0
40688000,40688000,908000,47.3977508,8.5456073,-10.966914,-1.001496,-6.375456,2.5823436e-05,0.0073877177,0.0,0.63331205,0.050014168,0.09569225,0.019432299,0.0008346232,-0.00024752718,-0.010746645,-1.5249541,-0.11155885,0.02780184,1.6427671,-0.006367456,488.08807,6.496066,0.5021976,0.46406662,0.17919002,0.13302161,inf,inf,inf,inf,1,1,1,1,2,0,2,1,3,1,1,1,0,0
41184000,41184000,908000,47.3977508,8.5456073,-10.810575,-0.979557,-6.3758283,2.5823436e-05,0.0073877177,0.0,-0.20308316,-0.007159178,0.09424667,0.011623062,0.0008346232,-0.00024752718,-0.010746645,-1.8290796,-0.13606818,0.0034375114,1.6434034,-0.006367456,488.08807,6.4964385,0.4681606,0.4582886,0.16512029,0.12907928,inf,inf,inf,inf,1,1,1,1,2,0,2,1,3,1,1,1,0,0
41688000,41688000,908000,47.3977508,8.5456073,-11.094535,-0.9779014,-6.371105,2.5823436e-05,0.0073877177,0.0,-1.0957463,-0.07850046,0.093223825,0.009849417,0.0008346232,-0.00024752718,-0.010746645,-1.7016827,-0.17172247,0.013668089,1.6435267,-0.006367456,488.08807,6.4917154,0.4787123,0.46256962,0.17457256,0.13061748,inf,inf,inf,inf,1,1,1,1,2,0,2,1,3,1,1,1,0,0
42184000,42184000,908000,47.3977508,8.5456073,-11.786935,-1.0125318,-6.373349,2.5823436e-05,0.0073877177,0.0,-1.7981888,-0.14228062,0.08856973,0.0011567234,0.0008346232,-0.00024752718,-0.010746645,-1.1521544,-0.14919798,0.012573785,1.6437687,-0.006367456,488.08807,6.4939594,0.4889276,0.46208557,0.18383825,0.13132067,inf,inf,inf,inf,1,1,1,1,2,0,2,1,3,1,1,1,0,0
42688000,42688000,908000,47.3977508,8.5456073,-12.7905035,-1.0814306,-6.3757467,2.5823436e-05,0.0073877177,0.0,-2.1590502,-0.18744642,0.07978383,-0.006178176,0.0008346232,-0.00024752718,-0.010746645,-0.25530064,-0.051410858,-0.020889563,1.6434177,-0.006367456,488.08807,6.496357,0.5008712,0.46636698,0.18878734,0.13282941,inf,inf,inf,inf,1,1,1,1,2,0,2,1,3,1,1,1,0,0
43184000,43184000,908000,47.3977508,8.5456073,-13.860801,-1.1554508,-6.3896894,2.5823436e-05,0.0073877177,0.0,-2.0751164,-0.19232571,0.078374274,-0.014770802,0.0008346232,-0.00024752718,-0.010746645,0.63850534,0.009434079,0.033897344,1.642988,-0.006367456,488.08807,6.5102997,0.4671769,0.4602987,0.16902173,0.12885687,inf,inf,inf,inf,1,1,1,1,2,0,2,1,3,1,1,1,0,0
43688000,43688000,908000,47.3977508,8.5456073,-14.823368,-1.2333344,-6.403887,2.5823436e-05,0.0073877177,0.0,-1.5718114,-0.16873445,0.10747524,0.0052196165,0.0008346232,-0.00024752718,-0.010746645,1.3853338,0.08355117,0.14995317,1.6432207,-0.006367456,488.08807,6.524497,0.47821808,0.46045476,0.16911967,0.13010988,inf,inf,inf,inf,1,1,1,1,2,0,2,1,3,1,1,1,0,0
44184000,44184000,908000,47.3977508,8.5456073,-15.447108,-1.2891697,-6.399485,2.5823436e-05,0.0073877177,0.0,-0.7779671,-0.11371482,0.1227459,0.018860653,0.0008346232,-0.00024752718,-0.010746645,1.8258913,0.0787103,0.032949258,1.6430742,-0.006367456,488.08807,6.5200953,0.48877946,0.46408078,0.17359339,0.13169001,inf,inf,inf,inf,1,1,1,1,2,0,2,1,3,1,1,1,0,0
44688000,44688000,908000,47.3977508,8.5456073,-15.632717,-1.3211373,-6.395429,2.5823436e-05,0.0073877177,0.0,0.14299187,-0.048462395,0.11449234,0.010095867,0.0008346232,-0.00024752718,-0.010746645,1.8026916,0.12274038,-0.015043653,1.643102,-0.006367456,488.08807,6.5160394,0.5006308,0.46454397,0.18473744,0.13276815,inf,inf,inf,inf,1,1,1,1,2,0,2,1,3,1,1,1,0,0
45184000,45184000,908000,47.3977508,8.5456073,-15.394798,-1.324299,-6.401655,2.5823436e-05,0.0073877177,0.0,0.92344576,0.015334928,0.10999844,-0.00042071403,0.0008346232,-0.00024752718,-0.010746645,1.3357444,0.10645009,0.004614703,1.6424341,-0.006367456,488.08807,6.5222654,0.4670614,0.45892158,0.17577712,0.1287384,inf,inf,inf,inf,1,1,1,1,2,0,2,1,3,1,1,1,0,0
45688000,45688000,908000,47.3977508,8.5456073,-14.8039875,-1.3048111,-6.41067,2.5823436e-05,0.0073877177,0.0,1.4038862,0.064514786,0.10461135,-0.010775379,0.0008346232,-0.00024752718,-0.010746645,0.56001943,0.07246792,0.04069041,1.6421592,-0.006367456,488.08807,6.53128,0.47823754,0.45942518,0.1823159,0.12989621,inf,inf,inf,inf,1,1,1,1,2,0,2,1,3,1,1,1,0,0
46184000,46184000,908000,47.3977508,8.5456073,-14.071642,-1.261637,-6.413326,2.5823436e-05,0.0073877177,0.0,1.4550718,0.08817536,0.107876964,-0.004706548,0.0008346232,-0.00024752718,-0.010746645,-0.3617158,-0.008941394,0.03672484,1.6418196,-0.006367456,488.08807,6.533936,0.48913524,0.4631369,0.18268533,0.13151099,inf,inf,inf,inf,1,1,1,1,2,0,2,1,3,1,1,1,0,0
46688000,46688000,908000,47.3977508,8.5456073,-13.392109,-1.2181923,-6.4127483,2.5823436e-05,0.0073877177,0.0,1.0637965,0.0734732,0.12506104,0.014676136,0.0008346232,-0.00024752718,-0.010746645,-1.1889396,-0.052956585,0.07649324,1.6418972,-0.006367456,488.08807,6.5333586,0.5012746,0.4637405,0.18058243,0.13286167,inf,inf,inf,inf,1,1,1,1,2,0,2,1,3,1,1,1,0,0
47184000,47184000,908000,47.3977508,8.5456073,-12.988474,-1.1736122,-6.4100776,2.5823436e-05,0.0073877177,0.0,0.34362587,0.032317292,0.1306159,0.016448002,0.0008346232,-0.00024752718,-0.010746645,-1.7273288,-0.1393516,-0.0049918885,1.6431336,-0.006367456,488.08807,6.530688,0.46744666,0.45829633,0.16308463,0.12906459,inf,inf,inf,inf,1,1,1,1,2,0,2,1,3,1,1,1,0,0
47688000,47688000,908000,47.3977508,8.5456073,-12.994938,-1.1602055,-6.4029756,2.5823436e-05,0.0073877177,0.0,-0.55667484,-0.040229004,0.12212539,0.009434252,0.0008346232,-0.00024752718,-0.010746645,-1.8624246,-0.16159342,0.027581116,1.6432312,-0.006367456,488.08807,6.523586,0.478075,0.45893696,0.16908406,0.13021214,inf,inf,inf,inf,1,1,1,1,2,0,2,1,3,1,1,1,0,0
48184000,48184000,908000,47.3977508,8.5456073,-13.445723,-1.1839613,-6.3943534,2.5823436e-05,0.0073877177,0.0,-1.3874514,-0.11200745,0.11634089,0.008887211,0.0008346232,-0.00024752718,-0.010746645,-1.549325,-0.17765732,-0.013004056,1.6434958,-0.006367456,488.08807,6.5149636,0.48815766,0.46287265,0.17793682,0.13158524,inf,inf,inf,inf,1,1,1,1,2,0,2,1,3,1,1,1,0,0
48688000,48688000,908000,47.3977508,8.5456073,-14.278465,-1.2373154,-6.3838954,2.5823436e-05,0.0073877177,0.0,-1.9711423,-0.16912375,0.09804463,0.00056380406,0.0008346232,-0.00024752718,-0.010746645,-0.7767432,-0.13477154,-0.035770234,1.6432366,-0.006367456,488.08807,6.5045056,0.49982226,0.4634763,0.18577059,0.13256107,inf,inf,inf,inf,1,1,1,1,2,0,2,1,3,1,1,1,0,0
49184000,49184000,908000,47.3977508,8.5456073,-15.312148,-1.308779,-6.3832426,2.5823436e-05,0.0073877177,0.0,-2.1462948,-0.19307758,0.07793219,-0.014544753,0.0008346232,-0.00024752718,-0.010746645,0.12238515,-0.04394181,-0.0123409545,1.6433136,-0.006367456,488.08807,6.503853,0.46668947,0.45790607,0.16950235,0.12864788,inf,inf,inf,inf,1,1,1,1,2,0,2,1,3,1,1,1,0,0
49688000,49688000,908000,47.3977508,8.5456073,-16.357666,-1.38627,-6.386833,2.5823436e-05,0.0073877177,0.0,-1.8804922,-0.1841511,0.0817376,-0.007952079,0.0008346232,-0.00024752718,-0.010746645,0.95340633,0.09593698,0.070136964,1.6430246,-0.006367456,488.08807,6.5074434,0.47751042,0.45842385,0.17004041,0.12993526,inf,inf,inf,inf,1,1,1,1,2,0,2,1,3,1,1,1,0,0
50184000,50184000,908000,47.3977508,8.5456073,-17.162466,-1.4545622,-6.3853526,2.5823436e-05,0.0073877177,0.0,-1.2388333,-0.14509311,0.1022518,0.012764645,0.0008346232,-0.00024752718,-0.010746645,1.59521,0.0669379,0.06854161,1.6430352,-0.006367456,488.08807,6.505963,0.488095,0.4624,0.17173071,0.13162641,inf,inf,inf,inf,1,1,1,1,2,0,2,1,3,1,1,1,0,0
50688000,50688000,908000,47.3977508,8.5456073,-17.58797,-1.5023754,-6.383415,2.5823436e-05,0.0073877177,0.0,-0.35804272,-0.08278455,0.105703525,0.012322996,0.0008346232,-0.00024752718,-0.010746645,1.8578721,0.14429903,-0.008980743,1.6430213,-0.006367456,488.08807,6.5040255,0.4998736,0.4631084,0.17880018,0.1327756,inf,inf,inf,inf,1,1,1,1,2,0,2,1,3,1,1,1,0,0
51184000,51184000,908000,47.3977508,8.5456073,-17.572865,-1.5171239,-6.395651,2.5823436e-05,0.0073877177,0.0,0.5113099,-0.014654654,0.10356668,-0.0025983737,0.0008346232,-0.00024752718,-0.010746645,1.620434,0.16215616,0.0545904,1.6428754,-0.006367456,488.08807,6.516261,0.46661052,0.4576499,0.17045525,0.12873171,inf,inf,inf,inf,1,1,1,1,2,0,2,1,3,1,1,1,0,0
51688000,51688000,908000,47.3977508,8.5456073,-17.146597,-1.5011555,-6.4037004,2.5823436e-05,0.0073877177,0.0,1.1845549,0.047813263,0.10669215,-0.0047262236,0.0008346232,-0.00024752718,-0.010746645,1.0064446,0.12533726,0.059557144,1.6422657,-0.006367456,488.08807,6.5243106,0.47752145,0.45846513,0.17922015,0.12982497,inf,inf,inf,inf,1,1,1,1,2,0,2,1,3,1,1,1,0,0
52184000,52184000,908000,47.3977508,8.5456073,-16.46145,-1.4595674,-6.4042273,2.5823436e-05,0.0073877177,0.0,1.4849164,0.08422313,0.10066597,-0.0066893296,0.0008346232,-0.00024752718,-0.010746645,0.17339508,0.049600083,0.007490627,1.6423662,-0.006367456,488.08807,6.5248375,0.4884751,0.4625364,0.18315743,0.13139649,inf,inf,inf,inf,1,1,1,1,2,0,2,1,3,1,1,1,0,0
52688000,52688000,908000,47.3977508,8.5456073,-15.707993,-1.4053695,-6.4004602,2.5823436e-05,0.0073877177,0.0,1.34461,0.08639295,0.101249486,0.0018336661,0.0008346232,-0.00024752718,-0.010746645,-0.761814,-0.059572145,0.010852701,1.6420743,-0.006367456,488.08807,6.5210705,0.5007223,0.46322557,0.1830551,0.1326714,inf,inf,inf,inf,1,1,1,1,2,0,2,1,3,1,1,1,0,0
53184000,53184000,908000,47.3977508,8.5456073,-15.113513,-1.356679,-6.399921,2.5823436e-05,0.0073877177,0.0,0.8061387,0.04993974,0.11731491,0.016116157,0.0008346232,-0.00024752718,-0.010746645,-1.464051,-0.12936428,0.037487593,1.6425695,-0.006367456,488.08807,6.520531,0.46727398,0.45764947,0.16416208,0.12890053,inf,inf,inf,inf,1,1,1,1,2,0,2,1,3,1,1,1,0,0
53688000,53688000,908000,47.3977508,8.5456073,-14.857474,-1.3386294,-6.3858995,2.5823436e-05,0.0073877177,0.0,-0.024109636,-0.0131014865,0.10576484,0.010707346,0.0008346232,-0.00024752718,-0.010746645,-1.8237494,-0.13300043,-0.0034989787,1.6429198,-0.006367456,488.08807,6.50651,0.4781588,0.45820466,0.16725749,0.13011064,inf,inf,inf,inf,1,1,1,1,2,0,2,1,3,1,1,1,0,0
54184000,54184000,908000,47.3977508,8.5456073,-15.041241,-1.3459498,-6.3799872,2.5823436e-05,0.0073877177,0.0,-0.9123643,-0.07991208,0.10272465,0.009910004,0.0008346232,-0.00024752718,-0.010746645,-1.7735792,-0.17165886,0.023280269,1.6431661,-0.006367456,488.08807,6.5005975,0.48826706,0.46203116,0.1740744,0.13150786,inf,inf,inf,inf,1,1,1,1,2,0,2,1,3,1,1,1,0,0
54688000,54688000,908000,47.3977508,8.5456073,-15.666876,-1.3863881,-6.368579,2.5823436e-05,0.0073877177,0.0,-1.6722257,-0.14470048,0.08825295,0.0037487855,0.0008346232,-0.00024752718,-0.010746645,-1.2654009,-0.10191862,-0.05625188,1.6435233,-0.006367456,488.08807,6.489189,0.49975982,0.46267256,0.18265271,0.13247156,inf,inf,inf,inf,1,1,1,1,2,0,2,1,3,1,1,1,0,0
55184000,55184000,908000,47.3977508,8.5456073,-16.596159,-1.4469584,-6.367799,2.5823436e-05,0.0073877177,0.0,-2.086013,-0.18319038,0.0686201,-0.012504582,0.0008346232,-0.00024752718,-0.010746645,-0.4251922,-0.046236604,-0.020557081,1.6435131,-0.006367456,488.08807,6.488409,0.46658817,0.45712358,0.16917779,0.12847933,inf,inf,inf,inf,1,1,1,1,2,0,2,1,3,1,1,1,0,0
55688000,55688000,908000,47.3977508,8.5456073,-17.661222,-1.5276256,-6.3728104,2.5823436e-05,0.0073877177,0.0,-2.0709047,-0.19664446,0.0614921,-0.017129706,0.0008346232,-0.00024752718,-0.010746645,0.44169053,-0.021196552,0.053832304,1.6431881,-0.006367456,488.08807,6.4934206,0.4772927,0.45765918,0.17130025,0.12972048,inf,inf,inf,inf,1,1,1,1,2,0,2,1,3,1,1,1,0,0
56184000,56184000,908000,47.3977508,8.5456073,-18.605436,-1.6066046,-6.3783245,2.5823436e-05,0.0073877177,0.0,-1.6244096,-0.17106268,0.08252436,0.0028422256,0.0008346232,-0.00024752718,-0.010746645,1.3086225,0.0946369,0.096712254,1.6430082,-0.006367456,488.08807,6.4989347,0.48785788,0.46161488,0.17214592,0.13144417,inf,inf,inf,inf,1,1,1,1,2,0,2,1,3,1,1,1,0,0
56688000,56688000,908000,47.3977508,8.5456073,-19.262398,-1.670302,-6.375091,2.5823436e-05,0.0073877177,0.0,-0.8440855,-0.11617465,0.099629745,0.01775791,0.0008346232,-0.00024752718,-0.010746645,1.7929348,0.116694085,-0.0011557712,1.6431439,-0.006367456,488.08807,6.4957013,0.499752,0.46234086,0.17620152,0.13270395,inf,inf,inf,inf,1,1,1,1,2,0,2,1,3,1,1,1,0,0
57184000,57184000,908000,47.3977508,8.5456073,-19.497377,-1.6944939,-6.3812046,2.5823436e-05,0.0073877177,0.0,0.054931365,-0.043472905,0.09954503,0.007839215,0.0008346232,-0.00024752718,-0.010746645,1.8452865,0.13828184,-0.035341825,1.643078,-0.006367456,488.08807,6.501815,0.4665377,0.45682934,0.16649096,0.12870653,inf,inf,inf,inf,1,1,1,1,2,0,2,1,3,1,1,1,0,0
57688000,57688000,908000,47.3977508,8.5456073,-19.281029,-1.6838607,-6.3731713,2.5823436e-05,0.0073877177,0.0,0.88220596,0.028241945,0.087262735,0.002688205,0.0008346232,-0.00024752718,-0.010746645,1.4066256,0.11586052,0.0052610408,1.6426939,-0.006367456,488.08807,6.4937816,0.47746938,0.46129608,0.17619959,0.13026299,inf,inf,inf,inf,1,1,1,1,2,0,2,1,3,1,1,1,0,0
58184000,58184000,908000,47.3977508,8.5456073,-18.712402,-1.6598042,-6.3767276,2.5823436e-05,0.0073877177,0.0,1.4142138,0.07217331,0.07535777,-0.010175585,0.0008346232,-0.00024752718,-0.010746645,0.68795216,0.03481333,-0.008043832,1.6421154,-0.006367456,488.08807,6.497338,0.48830113,0.46113095,0.18293773,0.13112986,inf,inf,inf,inf,1,1,1,1,2,0,2,1,3,1,1,1,0,0
58688000,58688000,908000,47.3977508,8.5456073,-17.962492,-1.6149487,-6.379897,2.5823436e-05,0.0073877177,0.0,1.5294449,0.096274465,0.07337711,-0.009465935,0.0008346232,-0.00024752718,-0.010746645,-0.20749025,0.028406313,0.041796822,1.642023,-0.006367456,488.08807,6.5005074,0.5005756,0.46569762,0.18539537,0.13283946,inf,inf,inf,inf,1,1,1,1,2,0,2,1,3,1,1,1,0,0
59184000,59184000,908000,47.3977508,8.5456073,-17.255905,-1.5729438,-6.3829155,2.5823436e-05,0.0073877177,0.0,1.2104149,0.08291769,0.08488643,0.002284714,0.0008346232,-0.00024752718,-0.010746645,-1.0687867,-0.06617278,0.054785978,1.6420697,-0.006367456,488.08807,6.5035257,0.46693593,0.4560888,0.16615184,0.12848777,inf,inf,inf,inf,1,1,1,1,2,0,2,1,3,1,1,1,0,0
59688000,59688000,908000,47.3977508,8.5456073,-16.795044,-1.5423613,-6.3739314,2.5823436e-05,0.0073877177,0.0,0.5169734,0.042796172,0.095310904,0.01578693,0.0008346232,-0.00024752718,-0.010746645,-1.6569636,-0.09515596,0.01049973,1.6421998,-0.006367456,488.08807,6.4945416,0.47784624,0.46060672,0.16720836,0.13029543,inf,inf,inf,inf,1,1,1,1,2,0,2,1,3,1,1,1,0,0
60184000,60184000,908000,47.3977508,8.5456073,-16.738577,-1.5323008,-6.3681526,2.5823436e-05,0.0073877177,0.0,-0.3609143,-0.02072181,0.08696215,0.007832871,0.0008346232,-0.00024752718,-0.010746645,-1.8542355,-0.14334796,0.030100344,1.6432818,-0.006367456,488.08807,6.488763,0.48807213,0.46440998,0.17143086,0.13176785,inf,inf,inf,inf,1,1,1,1,2,0,2,1,3,1,1,1,0,0
60688000,60688000,908000,47.3977508,8.5456073,-17.129417,-1.5527996,-6.3599195,2.5823436e-05,0.0073877177,0.0,-1.2259884,-0.09113646,0.08375637,0.009269521,0.0008346232,-0.00024752718,-0.010746645,-1.5447016,-0.14808665,0.017673707,1.643477,-0.006367456,488.08807,6.48053,0.49951112,0.4649412,0.17901017,0.13274845,inf,inf,inf,inf,1,1,1,1,2,0,2,1,3,1,1,1,0,0
61184000,61184000,908000,47.3977508,8.5456073,-17.899187,-1.6037,-6.360095,2.5823436e-05,0.0073877177,0.0,-1.8422083,-0.1449398,0.068014294,-0.0063517923,0.0008346232,-0.00024752718,-0.010746645,-0.9135624,-0.063752905,0.0037737188,1.6434668,-0.006367456,488.08807,6.4807053,0.46656394,0.45919877,0.16767658,0.12869897,inf,inf,inf,inf,1,1,1,1,2,0,2,1,3,1,1,1,0,0
61688000,61688000,908000,47.3977508,8.5456073,-18.92805,-1.6813238,-6.3600655,2.5823436e-05,0.0073877177,0.0,-2.0787194,-0.17664292,0.056030266,-0.012855774,0.0008346232,-0.00024752718,-0.010746645,0.047659848,-0.01899494,0.015318393,1.6434933,-0.006367456,488.08807,6.4806757,0.47716075,0.45955876,0.17168613,0.12986903,inf,inf,inf,inf,1,1,1,1,2,0,2,1,3,1,1,1,0,0
62184000,62184000,908000,47.3977508,8.5456073,-19.957214,-1.7561932,-6.35968,2.5823436e-05,0.0073877177,0.0,-1.8663152,-0.16615158,0.055385772,-0.0070043015,0.0008346232,-0.00024752718,-0.010746645,0.8803762,0.048003696,0.061193477,1.6431285,-0.006367456,488.08807,6.4802904,0.4875499,0.46319872,0.17314556,0.13153107,inf,inf,inf,inf,1,1,1,1,2,0,2,1,3,1,1,1,0,0
62688000,62688000,908000,47.3977508,8.5456073,-20.802141,-1.8252227,-6.350554,2.5823436e-05,0.0073877177,0.0,-1.2482704,-0.13164446,0.07300459,0.017748643,0.0008346232,-0.00024752718,-0.010746645,1.5837221,0.08880025,0.007931142,1.6431189,-0.006367456,488.08807,6.471164,0.49946976,0.4636299,0.17564604,0.13283375,inf,inf,inf,inf,1,1,1,1,2,0,2,1,3,1,1,1,0,0
63184000,63184000,908000,47.3977508,8.5456073,-21.270693,-1.8822141,-6.3454323,2.5823436e-05,0.0073877177,0.0,-0.39612696,-0.0729576,0.06610643,0.008797694,0.0008346232,-0.00024752718,-0.010746645,1.8856688,0.14483865,0.031504776,1.6428714,-0.006367456,488.08807,6.4660425,0.4663498,0.45784062,0.16397242,0.12887493,inf,inf,inf,inf,1,1,1,1,2,0,2,1,3,1,1,1,0,0
63688000,63688000,908000,47.3977508,8.5456073,-21.291473,-1.9072367,-6.3438926,2.5823436e-05,0.0073877177,0.0,0.5066139,0.0013551343,0.055254046,-0.0018744397,0.0008346232,-0.00024752718,-0.010746645,1.7404141,0.15529458,0.017463228,1.6422828,-0.006367456,488.08807,6.464503,0.47725555,0.46218708,0.17288883,0.13045539,inf,inf,inf,inf,1,1,1,1,2,0,2,1,3,1,1,1,0,0
64184000,64184000,908000,47.3977508,8.5456073,-20.894833,-1.8957827,-6.3426046,2.5823436e-05,0.0073877177,0.0,1.2116661,0.069393314,0.048005506,-0.0061820894,0.0008346232,-0.00024752718,-0.010746645,1.1353273,0.14065157,0.02314057,1.6417261,-0.006367456,488.08807,6.463215,0.48785913,0.46196866,0.18095829,0.13125513,inf,inf,inf,inf,1,1,1,1,2,0,2,1,3,1,1,1,0,0
64688000,64688000,908000,47.3977508,8.5456073,-20.2104,-1.8566025,-6.3434553,2.5823436e-05,0.0073877177,0.0,1.5673604,0.116047606,0.038157977,-0.011648577,0.0008346232,-0.00024752718,-0.010746645,0.27852103,0.06544546,0.015554949,1.6415236,-0.006367456,488.08807,6.4640656,0.5001122,0.4624812,0.18602978,0.13230577,inf,inf,inf,inf,1,1,1,1,2,0,2,1,3,1,1,1,0,0
65184000,65184000,908000,47.3977508,8.5456073,-19.45439,-1.8078771,-6.341583,2.5823436e-05,0.0073877177,0.0,1.4791284,0.1285359,0.036347862,-0.0061946334,0.0008346232,-0.00024752718,-0.010746645,-0.6043106,0.012017611,0.0023953614,1.6415828,-0.006367456,488.08807,6.462193,0.4667414,0.45707095,0.16802588,0.12854345,inf,inf,inf,inf,1,1,1,1,2,0,2,1,3,1,1,1,0,0
65688000,65688000,908000,47.3977508,8.5456073,-18.818672,-1.7572466,-6.328587,2.5823436e-05,0.0073877177,0.0,0.9694809,0.10265728,0.046380106,0.014473903,0.0008346232,-0.00024752718,-0.010746645,-1.3588661,-0.09026034,0.011046416,1.6420754,-0.006367456,488.08807,6.4491973,0.47773564,0.45783213,0.16857946,0.12991115,inf,inf,inf,inf,1,1,1,1,2,0,2,1,3,1,1,1,0,0
66184000,66184000,908000,47.3977508,8.5456073,-18.51061,-1.7195154,-6.314748,2.5823436e-05,0.0073877177,0.0,0.17150795,0.051285915,0.036644515,0.0108404,0.0008346232,-0.00024752718,-0.010746645,-1.775015,-0.12731816,-0.0038249416,1.6430547,-0.006367456,488.08807,6.435358,0.48809594,0.46179542,0.17087121,0.13151714,inf,inf,inf,inf,1,1,1,1,2,0,2,1,3,1,1,1,0,0
66688000,66688000,908000,47.3977508,8.5456073,-18.639273,-1.7182324,-6.304259,2.5823436e-05,0.0073877177,0.0,-0.7469071,-0.028557913,0.024425106,0.005002428,0.0008346232,-0.00024752718,-0.010746645,-1.7960323,-0.15830305,-0.0348743,1.6432481,-0.006367456,488.08807,6.424869,0.49971431,0.466505,0.17701602,0.13316005,inf,inf,inf,inf,1,1,1,1,2,0,2,1,3,1,1,1,0,0
67184000,67184000,908000,47.3977508,8.5456073,-19.189152,-1.7470473,-6.289785,2.5823436e-05,0.0073877177,0.0,-1.5254456,-0.093015574,0.0070366045,-0.0010645693,0.0008346232,-0.00024752718,-0.010746645,-1.3178716,-0.11118265,-0.01835171,1.6436456,-0.006367456,488.08807,6.410395,0.46668985,0.45682546,0.16645212,0.12851745,inf,inf,inf,inf,1,1,1,1,2,0,2,1,3,1,1,1,0,0
67688000,67688000,908000,47.3977508,8.5456073,-20.087976,-1.8010751,-6.288978,2.5823436e-05,0.0073877177,0.0,-1.9981008,-0.13397223,-0.010308032,-0.014584746,0.0008346232,-0.00024752718,-0.010746645,-0.5231002,-0.07981044,0.014926306,1.6435572,-0.006367456,488.08807,6.4095883,0.47722042,0.46130565,0.17206274,0.13014969,inf,inf,inf,inf,1,1,1,1,2,0,2,1,3,1,1,1,0,0
68184000,68184000,908000,47.3977508,8.5456073,-21.107819,-1.8665718,-6.2944565,2.5823436e-05,0.0073877177,0.0,-2.0336561,-0.14806396,-0.015061126,-0.01763999,0.0008346232,-0.00024752718,-0.010746645,0.40822068,-0.005490292,0.0050980593,1.6434983,-0.006367456,488.08807,6.4150667,0.48755473,0.46116617,0.17468646,0.13119951,inf,inf,inf,inf,1,1,1,1,2,0,2,1,3,1,1,1,0,0
68688000,68688000,908000,47.3977508,8.5456073,-22.056545,-1.9509678,-6.2883015,2.5823436e-05,0.0073877177,0.0,-1.62356,-0.1379456,-0.0020539907,0.004088818,0.0008346232,-0.00024752718,-0.010746645,1.2563392,0.07580615,0.003560446,1.6434666,-0.006367456,488.08807,6.4089117,0.49948153,0.46590185,0.17657433,0.13310108,inf,inf,inf,inf,1,1,1,1,2,0,2,1,3,1,1,1,0,0
69184000,69184000,908000,47.3977508,8.5456073,-22.715286,-2.0136316,-6.2695227,2.5823436e-05,0.0073877177,0.0,-0.8825183,-0.087357774,-0.0035217581,0.013986724,0.0008346232,-0.00024752718,-0.010746645,1.7642484,0.106264174,-0.04328135,1.6428795,-0.006367456,488.08807,6.390133,0.46634725,0.45632452,0.16267954,0.12869295,inf,inf,inf,inf,1,1,1,1,2,0,2,1,3,1,1,1,0,0
69688000,69688000,908000,47.3977508,8.5456073,-22.959166,-2.051688,-6.2660046,2.5823436e-05,0.0073877177,0.0,0.033112425,-0.01715182,-0.019254243,-0.0030673803,0.0008346232,-0.00024752718,-0.010746645,1.8449253,0.14607985,-0.00039860603,1.6424612,-0.006367456,488.08807,6.386615,0.47708973,0.46093848,0.16954654,0.13037525,inf,inf,inf,inf,1,1,1,1,2,0,2,1,3,1,1,1,0,0
70184000,70184000,908000,47.3977508,8.5456073,-22.75754,-2.0569904,-6.2692337,2.5823436e-05,0.0073877177,0.0,0.87034047,0.048531108,-0.01778159,-0.0036322183,0.0008346232,-0.00024752718,-0.010746645,1.4968569,0.11531263,-0.0060452144,1.6419629,-0.006367456,488.08807,6.389844,0.48757645,0.46095923,0.17773123,0.13122971,inf,inf,inf,inf,1,1,1,1,2,0,2,1,3,1,1,1,0,0
70688000,70688000,908000,47.3977508,8.5456073,-22.177248,-2.0199027,-6.2621403,2.5823436e-05,0.0073877177,0.0,1.452923,0.1078127,-0.033573743,-0.010785841,0.0008346232,-0.00024752718,-0.010746645,0.80958027,0.09414786,-0.018597579,1.6417134,-0.006367456,488.08807,6.3827505,0.49970025,0.46173576,0.18488961,0.13227685,inf,inf,inf,inf,1,1,1,1,2,0,2,1,3,1,1,1,0,0
71184000,71184000,908000,47.3977508,8.5456073,-21.3914,-1.9651458,-6.26995,2.5823436e-05,0.0073877177,0.0,1.6264653,0.13030049,-0.038200304,-0.015973557,0.0008346232,-0.00024752718,-0.010746645,-0.11361,0.005441223,0.016663222,1.6415509,-0.006367456,488.08807,6.39056,0.46650952,0.4563057,0.16899078,0.12843765,inf,inf,inf,inf,1,1,1,1,2,0,2,1,3,1,1,1,0,0
71688000,71688000,908000,47.3977508,8.5456073,-20.614027,-1.9053994,-6.270982,2.5823436e-05,0.0073877177,0.0,1.3495371,0.11955665,-0.026391473,-0.0006701107,0.0008346232,-0.00024752718,-0.010746645,-0.9828051,-0.051094115,0.041089017,1.6417053,-0.006367456,488.08807,6.391592,0.47753346,0.46079534,0.17019123,0.13028403,inf,inf,inf,inf,1,1,1,1,2,0,2,1,3,1,1,1,0,0
72184000,72184000,908000,47.3977508,8.5456073,-20.076086,-1.8505632,-6.264732,2.5823436e-05,0.0073877177,0.0,0.69815433,0.076780945,-0.014881422,0.012159735,0.0008346232,-0.00024752718,-0.010746645,-1.6458939,-0.11354795,-0.029522924,1.642654,-0.006367456,488.08807,6.385342,0.4880127,0.46457875,0.17133711,0.1319075,inf,inf,inf,inf,1,1,1,1,2,0,2,1,3,1,1,1,0,0
72688000,72688000,908000,47.3977508,8.5456073,-19.920494,-1.8226475,-6.2665086,2.5823436e-05,0.0073877177,0.0,-0.18697736,0.007762678,-0.017310318,0.0026498109,0.0008346232,-0.00024752718,-0.010746645,-1.8626913,-0.17126994,0.0180779,1.6430353,-0.006367456,488.08807,6.387119,0.49959385,0.46498927,0.17553705,0.1329826,inf,inf,inf,inf,1,1,1,1,2,0,2,1,3,1,1,1,0,0
73184000,73184000,908000,47.3977508,8.5456073,-20.205061,-1.8236886,-6.2638574,2.5823436e-05,0.0073877177,0.0,-1.0587677,-0.062587604,-0.010026693,0.009784512,0.0008346232,-0.00024752718,-0.010746645,-1.6211236,-0.18074645,-0.032982785,1.6433445,-0.006367456,488.08807,6.3844676,0.46660188,0.45914543,0.1646158,0.12886105,inf,inf,inf,inf,1,1,1,1,2,0,2,1,3,1,1,1,0,0
73688000,73688000,908000,47.3977508,8.5456073,-20.91013,-1.8573607,-6.257286,2.5823436e-05,0.0073877177,0.0,-1.7379624,-0.12384665,-0.02973056,-0.0058319364,0.0008346232,-0.00024752718,-0.010746645,-1.0215228,-0.09022721,-0.055056993,1.6437547,-0.006367456,488.08807,6.3778963,0.47711366,0.459522,0.17121357,0.12986022,inf,inf,inf,inf,1,1,1,1,2,0,2,1,3,1,1,1,0,0
74184000,74184000,908000,47.3977508,8.5456073,-21.8578,-1.9191805,-6.2596354,2.5823436e-05,0.0073877177,0.0,-2.0293522,-0.16114946,-0.040938776,-0.0145213995,0.0008346232,-0.00024752718,-0.010746645,-0.12034322,-0.042760517,-0.018596647,1.6434833,-0.006367456,488.08807,6.3802457,0.48739597,0.46319675,0.17539513,0.1313319,inf,inf,inf,inf,1,1,1,1,2,0,2,1,3,1,1,1,0,0
74688000,74688000,908000,47.3977508,8.5456073,-22.871634,-1.9922882,-6.271586,2.5823436e-05,0.0073877177,0.0,-1.880524,-0.15992294,-0.038381636,-0.016298465,0.0008346232,-0.00024752718,-0.010746645,0.76471114,0.021363229,0.022544524,1.6431621,-0.006367456,488.08807,6.392196,0.49918267,0.46359387,0.17779694,0.13254903,inf,inf,inf,inf,1,1,1,1,2,0,2,1,3,1,1,1,0,0
75184000,75184000,908000,47.3977508,8.5456073,-23.69265,-2.0606956,-6.2824793,2.5823436e-05,0.0073877177,0.0,-1.3243032,-0.12650102,-0.008625243,0.004733412,0.0008346232,-0.00024752718,-0.010746645,1.4398816,0.10148432,0.071696,1.6432084,-0.006367456,488.08807,6.4030895,0.4661547,0.45780483,0.16252026,0.12871756,inf,inf,inf,inf,1,1,1,1,2,0,2,1,3,1,1,1,0,0
75688000,75688000,908000,47.3977508,8.5456073,-24.172815,-2.1052933,-6.289098,2.5823436e-05,0.0073877177,0.0,-0.48620006,-0.06584254,0.009350826,0.011233248,0.0008346232,-0.00024752718,-0.010746645,1.801412,0.1254076,0.03509223,1.6429132,-0.006367456,488.08807,6.409708,0.47690642,0.4620624,0.16732965,0.13040736,inf,inf,inf,inf,1,1,1,1,2,0,2,1,3,1,1,1,0,0
76184000,76184000,908000,47.3977508,8.5456073,-24.194994,-2.1215727,-6.2918653,2.5823436e-05,0.0073877177,0.0,0.41310662,0.0058465754,0.0055905017,0.0023722865,0.0008346232,-0.00024752718,-0.010746645,1.7192489,0.17297556,0.012231058,1.6424804,-0.006367456,488.08807,6.4124756,0.48744813,0.4616171,0.17466222,0.13124198,inf,inf,inf,inf,1,1,1,1,2,0,2,1,3,1,1,1,0,0
76688000,76688000,908000,47.3977508,8.5456073,-23.791063,-2.1093848,-6.294146,2.5823436e-05,0.0073877177,0.0,1.1665659,0.06662446,0.006065743,0.00055013655,0.0008346232,-0.00024752718,-0.010746645,1.1904275,0.111349374,-0.05001202,1.6419005,-0.006367456,488.08807,6.4147563,0.49942097,0.46609333,0.18272975,0.13279359,inf,inf,inf,inf,1,1,1,1,2,0,2,1,3,1,1,1,0,0
77184000,77184000,908000,47.3977508,8.5456073,-23.079464,-2.0683858,-6.286713,2.5823436e-05,0.0073877177,0.0,1.5808325,0.11028117,-0.00940792,-0.0060613276,0.0008346232,-0.00024752718,-0.010746645,0.4158904,0.024687905,-0.054338943,1.641716,-0.006367456,488.08807,6.4073234,0.46626034,0.45633817,0.16903347,0.12828924,inf,inf,inf,inf,1,1,1,1,2,0,2,1,3,1,1,1,0,0
77688000,77688000,908000,47.3977508,8.5456073,-22.248032,-2.0064025,-6.2921777,2.5823436e-05,0.0073877177,0.0,1.558966,0.12245334,-0.015136003,-0.011942456,0.0008346232,-0.00024752718,-0.010746645,-0.52142835,-0.029331667,0.012986361,1.6418259,-0.006367456,488.08807,6.412788,0.47726223,0.46061626,0.17159152,0.13010007,inf,inf,inf,inf,1,1,1,1,2,0,2,1,3,1,1,1,0,0
78184000,78184000,908000,47.3977508,8.5456073,-21.543024,-1.9462334,-6.295487,2.5823436e-05,0.0073877177,0.0,1.1136829,0.0943595,0.004151182,0.0061263284,0.0008346232,-0.00024752718,-0.010746645,-1.2968869,-0.13311641,0.021954997,1.6421739,-0.006367456,488.08807,6.416097,0.48783574,0.46422663,0.17256704,0.13176754,inf,inf,inf,inf,1,1,1,1,2,0,2,1,3,1,1,1,0,0
78688000,78688000,908000,47.3977508,8.5456073,-21.136105,-1.9140764,-6.3059125,2.5823436e-05,0.0073877177,0.0,0.33713886,0.034923233,0.023907466,0.011598049,0.0008346232,-0.00024752718,-0.010746645,-1.7780635,-0.11726645,0.032073814,1.642744,-0.006367456,488.08807,6.4265227,0.4995338,0.4647361,0.17510575,0.13299322,inf,inf,inf,inf,1,1,1,1,2,0,2,1,3,1,1,1,0,0
79184000,79184000,908000,47.3977508,8.5456073,-21.1571,-1.9082621,-6.306555,2.5823436e-05,0.0073877177,0.0,-0.5564301,-0.034484953,0.027957484,0.010551732,0.0008346232,-0.00024752718,-0.010746645,-1.8475529,-0.1266712,0.021388752,1.6431047,-0.006367456,488.08807,6.427165,0.46643302,0.4551444,0.16295756,0.1284317,inf,inf,inf,inf,1,1,1,1,2,0,2,1,3,1,1,1,0,0
79688000,79688000,908000,47.3977508,8.5456073,-21.625196,-1.9402361,-6.3003907,2.5823436e-05,0.0073877177,0.0,-1.370334,-0.10295029,0.02362525,0.008752805,0.0008346232,-0.00024752718,-0.010746645,-1.4271784,-0.089794934,-0.043778677,1.6436104,-0.006367456,488.08807,6.421001,0.47708985,0.45590216,0.16966423,0.12952918,inf,inf,inf,inf,1,1,1,1,2,0,2,1,3,1,1,1,0,0
80184000,80184000,908000,47.3977508,8.5456073,-22.42727,-1.9977437,-6.3048024,2.5823436e-05,0.0073877177,0.0,-1.8765076,-0.14872882,0.0076869004,-0.010130137,0.0008346232,-0.00024752718,-0.010746645,-0.64881825,-0.0631564,0.021083279,1.6436265,-0.006367456,488.08807,6.4254127,0.48731917,0.4599606,0.17506358,0.13101262,inf,inf,inf,inf,1,1,1,1,2,0,2,1,3,1,1,1,0,0
80688000,80688000,908000,47.3977508,8.5456073,-23.414747,-2.0784225,-6.3198776,2.5823436e-05,0.0073877177,0.0,-1.9682488,-0.16905268,0.012430814,-0.012728259,0.0008346232,-0.00024752718,-0.010746645,0.26840815,-0.0039086295,0.04259124,1.6435295,-0.006367456,488.08807,6.440488,0.49906352,0.4647886,0.17857078,0.13280982,inf,inf,inf,inf,1,1,1,1,2,0,2,1,3,1,1,1,0,0
81184000,81184000,908000,47.3977508,8.5456073,-24.350521,-2.155764,-6.3211513,2.5823436e-05,0.0073877177,0.0,-1.6247895,-0.15017372,0.019858265,-0.0025710065,0.0008346232,-0.00024752718,-0.010746645,1.1126934,0.09770518,0.0017592682,1.6432096,-0.006367456,488.08807,6.4417615,0.4661832,0.45553842,0.16317752,0.12856707,inf,inf,inf,inf,1,1,1,1,2,0,2,1,3,1,1,1,0,0
81688000,81688000,908000,47.3977508,8.5456073,-25.041803,-2.2157476,-6.3220215,2.5823436e-05,0.0073877177,0.0,-0.9137326,-0.10361592,0.04033761,0.0134156635,0.0008346232,-0.00024752718,-0.010746645,1.7267157,0.08221165,0.027162952,1.642941,-0.006367456,488.08807,6.4426317,0.47693467,0.46021727,0.16668315,0.1304181,inf,inf,inf,inf,1,1,1,1,2,0,2,1,3,1,1,1,0,0
82184000,82184000,908000,47.3977508,8.5456073,-25.317429,-2.247166,-6.3197803,2.5823436e-05,0.0073877177,0.0,-0.028675795,-0.03625309,0.03921718,0.009112466,0.0008346232,-0.00024752718,-0.010746645,1.8432904,0.16259813,0.024016013,1.6426994,-0.006367456,488.08807,6.4403906,0.4873141,0.46013573,0.17259324,0.1313502,inf,inf,inf,inf,1,1,1,1,2,0,2,1,3,1,1,1,0,0
82688000,82688000,908000,47.3977508,8.5456073,-25.154877,-2.2417848,-6.3178425,2.5823436e-05,0.0073877177,0.0,0.83618444,0.036853023,0.037198983,0.0066854116,0.0008346232,-0.00024752718,-0.010746645,1.567454,0.14945067,0.021145677,1.6423615,-0.006367456,488.08807,6.4384527,0.49919605,0.4647269,0.18078357,0.13287133,inf,inf,inf,inf,1,1,1,1,2,0,2,1,3,1,1,1,0,0
83184000,83184000,908000,47.3977508,8.5456073,-24.604252,-2.2028284,-6.324945,2.5823436e-05,0.0073877177,0.0,1.4526334,0.09582141,0.027108237,-0.0096944105,0.0008346232,-0.00024752718,-0.010746645,0.8997243,0.09287545,-0.008334405,1.6418545,-0.006367456,488.08807,6.445555,0.46623948,0.45894703,0.16889183,0.12876444,inf,inf,inf,inf,1,1,1,1,2,0,2,1,3,1,1,1,0,0
83688000,83688000,908000,47.3977508,8.5456073,-23.824202,-2.1375809,-6.346663,2.5823436e-05,0.0073877177,0.0,1.67018,0.12693897,0.034761168,-0.015889268,0.0008346232,-0.00024752718,-0.010746645,-0.01760607,0.026465755,0.07978733,1.6421138,-0.006367456,488.08807,6.467273,0.4773179,0.4592889,0.17292269,0.12988974,inf,inf,inf,inf,1,1,1,1,2,0,2,1,3,1,1,1,0,0
84184000,84184000,908000,47.3977508,8.5456073,-23.039484,-2.065875,-6.362076,2.5823436e-05,0.0073877177,0.0,1.4474206,0.11777358,0.05653867,-0.0024032341,0.0008346232,-0.00024752718,-0.010746645,-0.8814306,-0.07505508,0.066397704,1.6424319,-0.006367456,488.08807,6.482686,0.48794597,0.46285996,0.17430773,0.13147146,inf,inf,inf,inf,1,1,1,1,2,0,2,1,3,1,1,1,0,0
84688000,84688000,908000,47.3977508,8.5456073,-22.44162,-2.0080934,-6.3536935,2.5823436e-05,0.0073877177,0.0,0.82681316,0.07251982,0.07632068,0.02221447,0.0008346232,-0.00024752718,-0.010746645,-1.5621186,-0.10191123,0.028730368,1.642633,-0.006367456,488.08807,6.4743037,0.49974868,0.46721494,0.17583224,0.1332345,inf,inf,inf,inf,1,1,1,1,2,0,2,1,3,1,1,1,0,0
85184000,85184000,908000,47.3977508,8.5456073,-22.215473,-1.9912205,-6.347732,2.5823436e-05,0.0073877177,0.0,-0.01975914,0.0039025613,0.068064295,0.0123644145,0.0008346232,-0.00024752718,-0.010746645,-1.8405508,-0.12571864,-0.009432434,1.6427096,-0.006367456,488.08807,6.4683423,0.46654233,0.45718896,0.16213967,0.1286464,inf,inf,inf,inf,1,1,1,1,2,0,2,1,3,1,1,1,0,0
85688000,85688000,908000,47.3977508,8.5456073,-22.432028,-2.0041504,-6.3409834,2.5823436e-05,0.0073877177,0.0,-0.90977174,-0.06819859,0.06347569,0.010483326,0.0008346232,-0.00024752718,-0.010746645,-1.661237,-0.13598718,0.0043138857,1.6433102,-0.006367456,488.08807,6.4615936,0.47711858,0.46155062,0.16801491,0.13022928,inf,inf,inf,inf,1,1,1,1,2,0,2,1,3,1,1,1,0,0
86184000,86184000,908000,47.3977508,8.5456073,-23.057076,-2.0491507,-6.3300805,2.5823436e-05,0.0073877177,0.0,-1.6027155,-0.1273635,0.046111006,0.0016794796,0.0008346232,-0.00024752718,-0.010746645,-1.0963625,-0.07345736,-0.03185216,1.6435474,-0.006367456,488.08807,6.4506907,0.4872944,0.46118367,0.17406076,0.13103974,inf,inf,inf,inf,1,1,1,1,2,0,2,1,3,1,1,1,0,0
86688000,86688000,908000,47.3977508,8.5456073,-23.975542,-2.1167393,-6.325848,2.5823436e-05,0.0073877177,0.0,-1.9419595,-0.16227981,0.027375316,-0.009924064,0.0008346232,-0.00024752718,-0.010746645,-0.23449828,-0.026333552,0.0053877006,1.6436357,-0.006367456,488.08807,6.4464583,0.4989701,0.46556246,0.17898397,0.132685,inf,inf,inf,inf,1,1,1,1,2,0,2,1,3,1,1,1,0,0
87184000,87184000,908000,47.3977508,8.5456073,-24.960264,-2.1967614,-6.3325524,2.5823436e-05,0.0073877177,0.0,-1.835644,-0.16539572,0.022287816,-0.015078548,0.0008346232,-0.00024752718,-0.010746645,0.6713034,0.02036306,0.007713213,1.6433146,-0.006367456,488.08807,6.4531627,0.46613646,0.4596349,0.16406086,0.12885725,inf,inf,inf,inf,1,1,1,1,2,0,2,1,3,1,1,1,0,0
87688000,87688000,908000,47.3977508,8.5456073,-25.813383,-2.2780585,-6.3400364,2.5823436e-05,0.0073877177,0.0,-1.3071171,-0.13545743,0.046773724,0.005178684,0.0008346232,-0.00024752718,-0.010746645,1.4612967,0.10886443,0.099373974,1.6431868,-0.006367456,488.08807,6.4606466,0.47687986,0.4599698,0.16684112,0.13019298,inf,inf,inf,inf,1,1,1,1,2,0,2,1,3,1,1,1,0,0
88184000,88184000,908000,47.3977508,8.5456073,-26.320032,-2.3372953,-6.346164,2.5823436e-05,0.0073877177,0.0,-0.49684095,-0.07437337,0.06340885,0.010912415,0.0008346232,-0.00024752718,-0.010746645,1.8471733,0.16578338,0.017363576,1.6428093,-0.006367456,488.08807,6.4667745,0.48725638,0.46359563,0.17119883,0.13176526,inf,inf,inf,inf,1,1,1,1,2,0,2,1,3,1,1,1,0,0
88688000,88688000,908000,47.3977508,8.5456073,-26.392395,-2.363159,-6.3413925,2.5823436e-05,0.0073877177,0.0,0.42853355,0.0036917129,0.061161403,0.009306336,0.0008346232,-0.00024752718,-0.010746645,1.8198059,0.16873915,-0.039642673,1.6423479,-0.006367456,488.08807,6.4620028,0.49907017,0.46387136,0.1785583,0.13276535,inf,inf,inf,inf,1,1,1,1,2,0,2,1,3,1,1,1,0,0
89184000,89184000,908000,47.3977508,8.5456073,-26.04128,-2.3523676,-6.342118,2.5823436e-05,0.0073877177,0.0,1.2030556,0.07045286,0.05100437,-0.002306746,0.0008346232,-0.00024752718,-0.010746645,1.3477832,0.16225094,-0.0015711411,1.6419713,-0.006367456,488.08807,6.462728,0.46607375,0.4579701,0.16775644,0.12861657,inf,inf,inf,inf,1,1,1,1,2,0,2,1,3,1,1,1,0,0
89688000,89688000,908000,47.3977508,8.5456073,-25.35518,-2.3088012,-6.3401523,2.5823436e-05,0.0073877177,0.0,1.6675559,0.121283285,0.042279117,-0.0055401986,0.0008346232,-0.00024752718,-0.010746645,0.5538408,0.05559061,-0.03664009,1.6417837,-0.006367456,488.08807,6.4607625,0.4769965,0.46211752,0.17334291,0.13017058,inf,inf,inf,inf,1,1,1,1,2,0,2,1,3,1,1,1,0,0
90184000,90184000,908000,47.3977508,8.5456073,-24.537897,-2.2441707,-6.3380494,2.5823436e-05,0.0073877177,0.0,1.7012361,0.13898754,0.031440105,-0.009328106,0.0008346232,-0.00024752718,-0.010746645,-0.3390879,-0.022294974,0.018660909,1.6419295,-0.006367456,488.08807,6.4586596,0.48779473,0.46561122,0.17612419,0.1316938,inf,inf,inf,inf,1,1,1,1,2,0,2,1,3,1,1,1,0,0
90688000,90688000,908000,47.3977508,8.5456073,-23.784203,-2.1784856,-6.333831,2.5823436e-05,0.0073877177,0.0,1.2961612,0.11604336,0.043850407,0.009154254,0.0008346232,-0.00024752718,-0.010746645,-1.1670699,-0.059887283,0.041360963,1.6419604,-0.006367456,488.08807,6.454441,0.49976075,0.46574816,0.17759012,0.13288221,inf,inf,inf,inf,1,1,1,1,2,0,2,1,3,1,1,1,0,0
91184000,91184000,908000,47.3977508,8.5456073,-23.31271,-2.1318305,-6.3245735,2.5823436e-05,0.0073877177,0.0,0.5647537,0.06125869,0.04740909,0.015186477,0.0008346232,-0.00024752718,-0.010746645,-1.699867,-0.151265,0.0024773178,1.642711,-0.006367456,488.08807,6.4451838,0.4665101,0.45968124,0.16232692,0.12893005,inf,inf,inf,inf,1,1,1,1,2,0,2,1,3,1,1,1,0,0
91688000,91688000,908000,47.3977508,8.5456073,-23.250626,-2.1139233,-6.3170276,2.5823436e-05,0.0073877177,0.0,-0.3391954,-0.013274635,0.034307126,0.0046911356,0.0008346232,-0.00024752718,-0.010746645,-1.8419113,-0.15527238,-0.0056074928,1.6430805,-0.006367456,488.08807,6.437638,0.4771823,0.45984566,0.1670088,0.1300039,inf,inf,inf,inf,1,1,1,1,2,0,2,1,3,1,1,1,0,0
92184000,92184000,908000,47.3977508,8.5456073,-23.632124,-2.1202662,-6.3105917,2.5823436e-05,0.0073877177,0.0,-1.1649626,-0.082346216,0.03017949,0.0051890644,0.0008346232,-0.00024752718,-0.010746645,-1.4789354,-0.15482852,-0.02012681,1.6433054,-0.006367456,488.08807,6.431202,0.44937727,0.45450768,0.15775175,0.12624352,inf,inf,inf,inf,1,1,1,1,2,0,2,1,3,1,1,1,0,0
92688000,92688000,908000,47.3977508,8.5456073,-24.387634,-2.1582882,-6.2937346,2.5823436e-05,0.0073877177,0.0,-1.7342036,-0.13691959,0.0025083423,-0.006325785,0.0008346232,-0.00024752718,-0.010746645,-0.7332104,-0.12483508,-0.06597209,1.6436405,-0.006367456,488.08807,6.414345,0.4615493,0.4551042,0.16504607,0.12775367,inf,inf,inf,inf,1,1,1,1,2,0,2,1,3,1,1,1,0,0
93184000,93184000,908000,47.3977508,8.5456073,-25.332376,-2.2228744,-6.2931385,2.5823436e-05,0.0073877177,0.0,-1.8928447,-0.16479786,-0.014465037,-0.017643895,0.0008346232,-0.00024752718,-0.010746645,0.14298443,0.0066742282,0.003702007,1.6434549,-0.006367456,488.08807,6.4137487,0.47365695,0.4590468,0.1700045,0.12972799,inf,inf,inf,inf,1,1,1,1,2,0,2,1,3,1,1,1,0,0
93688000,93688000,908000,47.3977508,8.5456073,-26.266455,-2.2933805,-6.2980323,2.5823436e-05,0.0073877177,0.0,-1.6083113,-0.15472835,-0.003680023,-0.0060374145,0.0008346232,-0.00024752718,-0.010746645,1.0058273,0.045807213,0.08194148,1.6433161,-0.006367456,488.08807,6.4186425,0.487231,0.4599498,0.17374228,0.13142772,inf,inf,inf,inf,1,1,1,1,2,0,2,1,3,1,1,1,0,0
94184000,94184000,908000,47.3977508,8.5456073,-26.954472,-2.3451447,-6.2878966,2.5823436e-05,0.0073877177,0.0,-0.9563062,-0.11069088,0.015430717,0.018947594,0.0008346232,-0.00024752718,-0.010746645,1.6133453,0.11569035,-0.032871027,1.6429235,-0.006367456,488.08807,6.408507,0.45827422,0.45504966,0.16099776,0.12805896,inf,inf,inf,inf,1,1,1,1,2,0,2,1,3,1,1,1,0,0
94688000,94688000,908000,47.3977508,8.5456073,-27.25493,-2.3746471,-6.270341,2.5823436e-05,0.0073877177,0.0,-0.076086976,-0.0447961,-0.0057146326,0.007123524,0.0008346232,-0.00024752718,-0.010746645,1.8671011,0.14189126,-0.05097687,1.6428539,-0.006367456,488.08807,6.390951,0.47025096,0.4560962,0.1670462,0.1295015,inf,inf,inf,inf,1,1,1,1,2,0,2,1,3,1,1,1,0,0
95184000,95184000,908000,47.3977508,8.5456073,-27.09173,-2.371048,-6.270798,2.5823436e-05,0.0073877177,0.0,0.79143155,0.025503134,-0.016368845,-0.0053432765,0.0008346232,-0.00024752718,-0.010746645,1.5930996,0.09746296,-0.012363306,1.6423541,-0.006367456,488.08807,6.3914084,0.48184463,0.4603281,0.17428635,0.1310873,inf,inf,inf,inf,1,1,1,1,2,0,2,1,3,1,1,1,0,0
95688000,95688000,908000,47.3977508,8.5456073,-26.522362,-2.3296592,-6.278916,2.5823436e-05,0.0073877177,0.0,1.4485841,0.08806535,-0.017417287,-0.011829991,0.0008346232,-0.00024752718,-0.010746645,0.9753721,0.090051614,0.0032531095,1.6421585,-0.006367456,488.08807,6.399526,0.49488556,0.46133116,0.18132883,0.13224165,inf,inf,inf,inf,1,1,1,1,2,0,2,1,3,1,1,1,0,0
96184000,96184000,908000,47.3977508,8.5456073,-25.704155,-2.2654204,-6.27796,2.5823436e-05,0.0073877177,0.0,1.7240697,0.120702155,-0.027464116,-0.016341493,0.0008346232,-0.00024752718,-0.010746645,0.10484352,0.038493436,-0.01542177,1.642102,-0.006367456,488.08807,6.39857,0.46322262,0.45618758,0.16715279,0.1284698,inf,inf,inf,inf,1,1,1,1,2,0,2,1,3,1,1,1,0,0
96688000,96688000,908000,47.3977508,8.5456073,-24.82179,-2.1968658,-6.291846,2.5823436e-05,0.0073877177,0.0,1.5572416,0.11640153,-0.018129911,-0.013652085,0.0008346232,-0.00024752718,-0.010746645,-0.82231134,-0.0747017,0.039265487,1.6419197,-0.006367456,488.08807,6.412456,0.4748239,0.45707807,0.16954638,0.12989855,inf,inf,inf,inf,1,1,1,1,2,0,2,1,3,1,1,1,0,0
97184000,97184000,908000,47.3977508,8.5456073,-24.132332,-2.1406236,-6.2858477,2.5823436e-05,0.0073877177,0.0,0.9861907,0.07947177,0.0065322057,0.015634853,0.0008346232,-0.00024752718,-0.010746645,-1.5217915,-0.10203632,-0.013787298,1.6420105,-0.006367456,488.08807,6.406458,0.4858477,0.46123213,0.17122051,0.13168,inf,inf,inf,inf,1,1,1,1,2,0,2,1,3,1,1,1,0,0
97688000,97688000,908000,47.3977508,8.5456073,-23.789454,-2.111476,-6.2791905,2.5823436e-05,0.0073877177,0.0,0.13333876,0.015320947,0.0003111382,0.008685892,0.0008346232,-0.00024752718,-0.010746645,-1.8922461,-0.16906574,-0.019525176,1.6429665,-0.006367456,488.08807,6.399801,0.49794704,0.46203515,0.17499532,0.13290143,inf,inf,inf,inf,1,1,1,1,2,0,2,1,3,1,1,1,0,0
98184000,98184000,908000,47.3977508,8.5456073,-23.86222,-2.107505,-6.2683444,2.5823436e-05,0.0073877177,0.0,-0.7567145,-0.05256987,-0.010888306,0.0046738693,0.0008346232,-0.00024752718,-0.010746645,-1.7831177,-0.18279755,-0.011883675,1.6432655,-0.006367456,488.08807,6.3889546,0.46797553,0.45688158,0.16543882,0.12923491,inf,inf,inf,inf,1,1,1,1,2,0,2,1,3,1,1,1,0,0
98688000,98688000,908000,47.3977508,8.5456073,-24.394053,-2.1468632,-6.2586255,2.5823436e-05,0.0073877177,0.0,-1.5150177,-0.121720225,-0.026607987,-0.0035702465,0.0008346232,-0.00024752718,-0.010746645,-1.236222,-0.108693376,-0.03381632,1.643483,-0.006367456,488.08807,6.3792357,0.4816772,0.46179494,0.17361598,0.13113153,inf,inf,inf,inf,1,1,1,1,2,0,2,1,3,1,1,1,0,0
99184000,99184000,908000,47.3977508,8.5456073,-25.221125,-2.213182,-6.26169,2.5823436e-05,0.0073877177,0.0,-1.9165668,-0.16256328,-0.038014024,-0.014054961,0.0008346232,-0.00024752718,-0.010746645,-0.43253732,-0.062930286,-0.026647,1.6433321,-0.006367456,488.08807,6.3823004,0.45450905,0.45306492,0.16294077,0.127093,inf,inf,inf,inf,1,1,1,1,2,0,2,1,3,1,1,1,0,0
99688000,99688000,908000,47.3977508,8.5456073,-26.159225,-2.2943697,-6.268805,2.5823436e-05,0.0073877177,0.0,-1.8797928,-0.1703857,-0.04137535,-0.017416194,0.0008346232,-0.00024752718,-0.010746645,0.46576402,0.040792815,-0.017679295,1.6434932,-0.006367456,488.08807,6.3894153,0.4667188,0.45788738,0.16682458,0.12911604,inf,inf,inf,inf,1,1,1,1,2,0,2,1,3,1,1,1,0,0
100184000,100184000,908000,47.3977508,8.5456073,-26.974974,-2.377096,-6.2831335,2.5823436e-05,0.0073877177,0.0,-1.421306,-0.14999144,-0.01481376,6.552145e-05,0.0008346232,-0.00024752718,-0.010746645,1.2699996,0.09583916,0.10719615,1.6431881,-0.006367456,488.08807,6.4037437,0.47855282,0.45820066,0.16960488,0.13045764,inf,inf,inf,inf,1,1,1,1,2,0,2,1,3,1,1,1,0,0
100688000,100688000,908000,47.3977508,8.5456073,-27.495245,-2.4311087,-6.280085,2.5823436e-05,0.0073877177,0.0,-0.6354219,-0.08836431,0.0032990046,0.015526339,0.0008346232,-0.00024752718,-0.010746645,1.7623256,0.15457548,-0.0115614375,1.6425511,-0.006367456,488.08807,6.4006953,0.49159968,0.46323943,0.17402509,0.1324142,inf,inf,inf,inf,1,1,1,1,2,0,2,1,3,1,1,1,0,0
101184000,101184000,908000,47.3977508,8.5456073,-27.57609,-2.4477632,-6.275236,2.5823436e-05,0.0073877177,0.0,0.2687988,-0.016086234,-0.009796993,0.0020904974,0.0008346232,-0.00024752718,-0.010746645,1.7665913,0.14419515,-0.007017515,1.6424061,-0.006367456,488.08807,6.3958464,0.46092233,0.4541148,0.16320848,0.1280418,inf,inf,inf,inf,1,1,1,1,2,0,2,1,3,1,1,1,0,0
101688000,101688000,908000,47.3977508,8.5456073,-27.2129,-2.4219558,-6.282685,2.5823436e-05,0.0073877177,0.0,1.0829438,0.056803573,-0.0060171746,-0.00179751,0.0008346232,-0.00024752718,-0.010746645,1.3496512,0.10856572,-0.0018505378,1.6421237,-0.006367456,488.08807,6.403295,0.475522,0.4591807,0.17258182,0.13015018,inf,inf,inf,inf,1,1,1,1,2,0,2,1,3,1,1,1,0,0
102184000,102184000,908000,47.3977508,8.5456073,-26.513786,-2.3691518,-6.285725,2.5823436e-05,0.0073877177,0.0,1.5877987,0.10182318,-0.011162762,-0.007100497,0.0008346232,-0.00024752718,-0.010746645,0.5845934,0.06501072,-0.020731239,1.642177,-0.006367456,488.08807,6.4063354,0.45024058,0.45084897,0.16318439,0.12641338,inf,inf,inf,inf,1,1,1,1,2,0,2,1,3,1,1,1,0,0
102688000,102688000,908000,47.3977508,8.5456073,-25.634747,-2.2935033,-6.283326,2.5823436e-05,0.0073877177,0.0,1.6789548,0.11986244,-0.020444982,-0.009103107,0.0008346232,-0.00024752718,-0.010746645,-0.322329,-0.020367354,-0.02936553,1.64192,-0.006367456,488.08807,6.4039364,0.46320245,0.45575896,0.16776098,0.12863635,inf,inf,inf,inf,1,1,1,1,2,0,2,1,3,1,1,1,0,0
103184000,103184000,908000,47.3977508,8.5456073,-24.81811,-2.2152128,-6.2803273,2.5823436e-05,0.0073877177,0.0,1.3331099,0.101442836,-0.014538779,0.002384387,0.0008346232,-0.00024752718,-0.010746645,-1.1238626,-0.11711561,-0.0022836027,1.642344,-0.006367456,488.08807,6.4009376,0.4757388,0.4562081,0.17034791,0.13019142,inf,inf,inf,inf,1,1,1,1,2,0,2,1,3,1,1,1,0,0
103688000,103688000,908000,47.3977508,8.5456073,-24.263588,-2.1490958,-6.273224,2.5823436e-05,0.0073877177,0.0,0.6101981,0.04643573,-0.004183355,0.013963072,0.0008346232,-0.00024752718,-0.010746645,-1.7458565,-0.14651152,-0.004967674,1.643028,-0.006367456,488.08807,6.393834,0.48932898,0.46133596,0.17353438,0.13233422,inf,inf,inf,inf,1,1,1,1,2,0,2,1,3,1,1,1,0,0
104184000,104184000,908000,47.3977508,8.5456073,-24.110323,-2.1129534,-6.272229,2.5823436e-05,0.0073877177,0.0,-0.27824202,-0.029303024,-0.007390287,0.006436508,0.0008346232,-0.00024752718,-0.010746645,-1.9355494,-0.2186789,0.0010952352,1.6430125,-0.006367456,488.08807,6.3928394,0.4594291,0.4563415,0.16145681,0.12860024,inf,inf,inf,inf,1,1,1,1,2,0,2,1,3,1,1,1,0,0
104688000,104688000,908000,47.3977508,8.5456073,-24.410275,-2.1189384,-6.2668824,2.5823436e-05,0.0073877177,0.0,-1.1505444,-0.1048512,-0.011978485,0.003911878,0.0008346232,-0.00024752718,-0.010746645,-1.6294297,-0.14506777,-0.026991589,1.6431971,-0.006367456,488.08807,6.3874927,0.4711458,0.4573572,0.16766723,0.12978558,inf,inf,inf,inf,1,1,1,1,2,0,2,1,3,1,1,1,0,0
105184000,105184000,908000,47.3977508,8.5456073,-25.088257,-2.164671,-6.271613,2.5823436e-05,0.0073877177,0.0,-1.7613684,-0.16676417,-0.019330913,-0.0068876185,0.0008346232,-0.00024752718,-0.010746645,-0.90338707,-0.09460143,0.029063782,1.6432328,-0.006367456,488.08807,6.3922234,0.48236006,0.4577293,0.17328121,0.13073611,inf,inf,inf,inf,1,1,1,1,2,0,2,1,3,1,1,1,0,0
105688000,105688000,908000,47.3977508,8.5456073,-26.00499,-2.2378666,-6.279129,2.5823436e-05,0.0073877177,0.0,-1.9811366,-0.19518165,-0.026285797,-0.014951935,0.0008346232,-0.00024752718,-0.010746645,-0.033494957,-0.02795227,0.048194077,1.6432968,-0.006367456,488.08807,6.3997393,0.49491417,0.4629217,0.17762704,0.13253255,inf,inf,inf,inf,1,1,1,1,2,0,2,1,3,1,1,1,0,0
106184000,106184000,908000,47.3977508,8.5456073,-26.923267,-2.3096218,-6.2841883,2.5823436e-05,0.0073877177,0.0,-1.7578515,-0.18919574,-0.024453515,-0.012000378,0.0008346232,-0.00024752718,-0.010746645,0.8510755,-0.012217394,0.057650726,1.6431367,-0.006367456,488.08807,6.4047985,0.46308956,0.45399088,0.1628234,0.1282719,inf,inf,inf,inf,1,1,1,1,2,0,2,1,3,1,1,1,0,0
106688000,106688000,908000,47.3977508,8.5456073,-27.654999,-2.3703587,-6.2923303,2.5823436e-05,0.0073877177,0.0,-1.1351198,-0.14597726,0.005354801,0.010074715,0.0008346232,-0.00024752718,-0.010746645,1.5269231,0.10191021,0.060020942,1.6430379,-0.006367456,488.08807,6.4129405,0.47431287,0.45882195,0.16603255,0.1301357,inf,inf,inf,inf,1,1,1,1,2,0,2,1,3,1,1,1,0,0
107184000,107184000,908000,47.3977508,8.5456073,-28.007889,-2.403671,-6.2926984,2.5823436e-05,0.0073877177,0.0,-0.27989945,-0.08188516,0.011806963,0.010402842,0.0008346232,-0.00024752718,-0.010746645,1.8317469,0.11444355,0.022226943,1.6429337,-0.006367456,488.08807,6.4133086,0.48506135,0.458975,0.17086221,0.13113166,inf,inf,inf,inf,1,1,1,1,2,0,2,1,3,1,1,1,0,0
107688000,107688000,908000,47.3977508,8.5456073,-27.91214,-2.4057362,-6.291498,2.5823436e-05,0.0073877177,0.0,0.62315637,-0.008488659,0.008549891,0.005544302,0.0008346232,-0.00024752718,-0.010746645,1.6545866,0.12493043,-0.025313346,1.6425346,-0.006367456,488.08807,6.4121084,0.49716982,0.46380794,0.17802492,0.13271728,inf,inf,inf,inf,1,1,1,1,2,0,2,1,3,1,1,1,0,0
108184000,108184000,908000,47.3977508,8.5456073,-27.41077,-2.374756,-6.287535,2.5823436e-05,0.0073877177,0.0,1.3213503,0.054581016,-0.0009828373,-0.00090259884,0.0008346232,-0.00024752718,-0.010746645,1.029887,0.0784721,-0.0338871,1.6423489,-0.006367456,488.08807,6.4081454,0.46447414,0.45821828,0.16643013,0.12859662,inf,inf,inf,inf,1,1,1,1,2,0,2,1,3,1,1,1,0,0
108688000,108688000,908000,47.3977508,8.5456073,-26.618753,-2.316262,-6.288163,2.5823436e-05,0.0073877177,0.0,1.6672549,0.09531126,-0.014714097,-0.011911092,0.0008346232,-0.00024752718,-0.010746645,0.22556014,0.008741568,-0.025049781,1.6421175,-0.006367456,488.08807,6.4087734,0.4753977,0.45873594,0.17119391,0.12968904,inf,inf,inf,inf,1,1,1,1,2,0,2,1,3,1,1,1,0,0
109184000,109184000,908000,47.3977508,8.5456073,-25.768686,-2.2490017,-6.2907844,2.5823436e-05,0.0073877177,0.0,1.5642194,0.09621389,-0.014339571,-0.008486053,0.0008346232,-0.00024752718,-0.010746645,-0.69996816,-0.04222497,0.010812654,1.6422147,-0.006367456,488.08807,6.4113946,0.48597783,0.46256867,0.17357431,0.13129489,inf,inf,inf,inf,1,1,1,1,2,0,2,1,3,1,1,1,0,0
109688000,109688000,908000,47.3977508,8.5456073,-25.055126,-2.1873546,-6.2888665,2.5823436e-05,0.0073877177,0.0,1.0356303,0.06008264,0.004507398,0.011464825,0.0008346232,-0.00024752718,-0.010746645,-1.4430655,-0.12284527,0.03872532,1.6424996,-0.006367456,488.08807,6.4094768,0.497929,0.46318397,0.17561392,0.1325817,inf,inf,inf,inf,1,1,1,1,2,0,2,1,3,1,1,1,0,0
110184000,110184000,908000,47.3977508,8.5456073,-24.673756,-2.1504116,-6.2832675,2.5823436e-05,0.0073877177,0.0,0.22953714,-6.9937305e-05,0.006631095,0.012443752,0.0008346232,-0.00024752718,-0.010746645,-1.8517904,-0.13958925,-0.032779757,1.6427286,-0.006367456,488.08807,6.4038777,0.46492913,0.4575303,0.16141711,0.12864143,inf,inf,inf,inf,1,1,1,1,2,0,2,1,3,1,1,1,0,0
110688000,110688000,908000,47.3977508,8.5456073,-24.724005,-2.1451976,-6.2785406,2.5823436e-05,0.0073877177,0.0,-0.68549323,-0.07074293,0.004864212,0.010683617,0.0008346232,-0.00024752718,-0.010746645,-1.8025628,-0.1827733,0.020527279,1.6432726,-0.006367456,488.08807,6.399151,0.47562042,0.45809427,0.16664238,0.12972789,inf,inf,inf,inf,1,1,1,1,2,0,2,1,3,1,1,1,0,0
111184000,111184000,908000,47.3977508,8.5456073,-25.219925,-2.1769483,-6.271916,2.5823436e-05,0.0073877177,0.0,-1.4678481,-0.13595976,-0.005790846,0.002991312,0.0008346232,-0.00024752718,-0.010746645,-1.3753842,-0.1462072,-0.030657275,1.6433752,-0.006367456,488.08807,6.392526,0.48573893,0.4618096,0.17234614,0.13106026,inf,inf,inf,inf,1,1,1,1,2,0,2,1,3,1,1,1,0,0
111688000,111688000,908000,47.3977508,8.5456073,-26.061352,-2.236984,-6.275386,2.5823436e-05,0.0073877177,0.0,-1.9336802,-0.17908503,-0.021219393,-0.013381961,0.0008346232,-0.00024752718,-0.010746645,-0.51307464,-0.058144692,-0.012994743,1.643592,-0.006367456,488.08807,6.395996,0.49742705,0.46248356,0.17771453,0.13214466,inf,inf,inf,inf,1,1,1,1,2,0,2,1,3,1,1,1,0,0
112184000,112184000,908000,47.3977508,8.5456073,-27.028315,-2.3179047,-6.291633,2.5823436e-05,0.0073877177,0.0,-1.9652783,-0.19071844,-0.017727263,-0.018343871,0.0008346232,-0.00024752718,-0.010746645,0.39594305,-0.03689111,0.006381422,1.6434354,-0.006367456,488.08807,6.4122434,0.4646199,0.45704293,0.16336657,0.12833303,inf,inf,inf,inf,1,1,1,1,2,0,2,1,3,1,1,1,0,0
112688000,112688000,908000,47.3977508,8.5456073,-27.932922,-2.402071,-6.3163257,2.5823436e-05,0.0073877177,0.0,-1.5605284,-0.16782309,0.008941051,-0.0081670405,0.0008346232,-0.00024752718,-0.010746645,1.1932607,0.0465813,0.10358914,1.6432563,-0.006367456,488.08807,6.436936,0.4752459,0.45782417,0.16625898,0.12972663,inf,inf,inf,inf,1,1,1,1,2,0,2,1,3,1,1,1,0,0
113184000,113184000,908000,47.3977508,8.5456073,-28.545547,-2.4730601,-6.336463,2.5823436e-05,0.0073877177,0.0,-0.8272384,-0.11592942,0.048488554,0.011101093,0.0008346232,-0.00024752718,-0.010746645,1.7225711,0.13076937,0.11106207,1.6429778,-0.006367456,488.08807,6.457073,0.48551422,0.46182704,0.1698895,0.13138215,inf,inf,inf,inf,1,1,1,1,2,0,2,1,3,1,1,1,0,0
113688000,113688000,908000,47.3977508,8.5456073,-28.757307,-2.5117438,-6.342854,2.5823436e-05,0.0073877177,0.0,0.07469065,-0.041602638,0.06049531,0.012860368,0.0008346232,-0.00024752718,-0.010746645,1.8085083,0.17973167,0.0311546,1.6426046,-0.006367456,488.08807,6.4634643,0.49716917,0.46246472,0.1760685,0.13245995,inf,inf,inf,inf,1,1,1,1,2,0,2,1,3,1,1,1,0,0
114184000,114184000,908000,47.3977508,8.5456073,-28.523369,-2.5119057,-6.342495,2.5823436e-05,0.0073877177,0.0,0.8978868,0.032482542,0.05765186,0.00820067,0.0008346232,-0.00024752718,-0.010746645,1.4700118,0.14496006,-0.029042361,1.6420925,-0.006367456,488.08807,6.463105,0.46443895,0.45699245,0.1651757,0.12838252,inf,inf,inf,inf,1,1,1,1,2,0,2,1,3,1,1,1,0,0
114688000,114688000,908000,47.3977508,8.5456073,-27.914886,-2.478888,-6.3405557,2.5823436e-05,0.0073877177,0.0,1.4601722,0.09063631,0.04352334,-0.0031562222,0.0008346232,-0.00024752718,-0.010746645,0.7537338,0.103557065,0.006125308,1.641657,-0.006367456,488.08807,6.461166,0.47519287,0.45761088,0.1711394,0.12944284,inf,inf,inf,inf,1,1,1,1,2,0,2,1,3,1,1,1,0,0
115184000,115184000,908000,47.3977508,8.5456073,-27.119642,-2.429679,-6.337227,2.5823436e-05,0.0073877177,0.0,1.6081448,0.11513876,0.0329866,-0.006139381,0.0008346232,-0.00024752718,-0.010746645,-0.14332739,0.01932775,-0.036184672,1.6415571,-0.006367456,488.08807,6.457837,0.4857028,0.46143416,0.17469347,0.13097614,inf,inf,inf,inf,1,1,1,1,2,0,2,1,3,1,1,1,0,0
115688000,115688000,908000,47.3977508,8.5456073,-26.329754,-2.3673332,-6.3387203,2.5823436e-05,0.0073877177,0.0,1.3163369,0.10690014,0.041529626,0.004430852,0.0008346232,-0.00024752718,-0.010746645,-1.0197806,-0.08138462,0.07191393,1.6419506,-0.006367456,488.08807,6.4593306,0.49743867,0.4619621,0.17687218,0.13221872,inf,inf,inf,inf,1,1,1,1,2,0,2,1,3,1,1,1,0,0
116184000,116184000,908000,47.3977508,8.5456073,-25.771803,-2.314629,-6.3286476,2.5823436e-05,0.0073877177,0.0,0.66336864,0.06212717,0.051199097,0.018327666,0.0008346232,-0.00024752718,-0.010746645,-1.6800776,-0.11615782,-0.0077662985,1.6426104,-0.006367456,488.08807,6.449258,0.46449465,0.45640078,0.16163926,0.1283889,inf,inf,inf,inf,1,1,1,1,2,0,2,1,3,1,1,1,0,0
116688000,116688000,908000,47.3977508,8.5456073,-25.593096,-2.289901,-6.3185463,2.5823436e-05,0.0073877177,0.0,-0.21917813,-0.0050026784,0.038719814,0.008275428,0.0008346232,-0.00024752718,-0.010746645,-1.8826643,-0.1474718,-0.010625458,1.6430264,-0.006367456,488.08807,6.4391565,0.4751477,0.45699134,0.1658004,0.1295719,inf,inf,inf,inf,1,1,1,1,2,0,2,1,3,1,1,1,0,0
117184000,117184000,908000,47.3977508,8.5456073,-25.876694,-2.3014588,-6.3117685,2.5823436e-05,0.0073877177,0.0,-1.0945969,-0.07497694,0.033110935,0.006381217,0.0008346232,-0.00024752718,-0.010746645,-1.6484725,-0.11607565,-0.018870456,1.643341,-0.006367456,488.08807,6.432379,0.48530975,0.46099836,0.17118424,0.13102768,inf,inf,inf,inf,1,1,1,1,2,0,2,1,3,1,1,1,0,0
117688000,117688000,908000,47.3977508,8.5456073,-26.570618,-2.3503118,-6.3078604,2.5823436e-05,0.0073877177,0.0,-1.7636794,-0.1315391,0.018995289,-0.0040262137,0.0008346232,-0.00024752718,-0.010746645,-1.0093851,-0.08418079,-0.023638828,1.643794,-0.006367456,488.08807,6.4284706,0.49684614,0.4616842,0.1771406,0.13206154,inf,inf,inf,inf,1,1,1,1,2,0,2,1,3,1,1,1,0,0
118184000,118184000,908000,47.3977508,8.5456073,-27.498997,-2.4198546,-6.307948,2.5823436e-05,0.0073877177,0.0,-2.0417101,-0.16113749,0.004095442,-0.014446108,0.0008346232,-0.00024752718,-0.010746645,-0.17488281,-0.005098503,0.013566575,1.6434586,-0.006367456,488.08807,6.4285583,0.46426275,0.4562855,0.16381694,0.1281928,inf,inf,inf,inf,1,1,1,1,2,0,2,1,3,1,1,1,0,0
118688000,118688000,908000,47.3977508,8.5456073,-28.493727,-2.4970536,-6.3141866,2.5823436e-05,0.0073877177,0.0,-1.875725,-0.15450113,0.005001522,-0.01262025,0.0008346232,-0.00024752718,-0.010746645,0.77211565,0.066018336,0.03628991,1.6434186,-0.006367456,488.08807,6.434797,0.47489768,0.45698032,0.1670255,0.12954402,inf,inf,inf,inf,1,1,1,1,2,0,2,1,3,1,1,1,0,0
119184000,119184000,908000,47.3977508,8.5456073,-29.310804,-2.5696054,-6.3183227,2.5823436e-05,0.0073877177,0.0,-1.3122648,-0.121199265,0.029903973,0.008503058,0.0008346232,-0.00024752718,-0.010746645,1.4672816,0.09853318,0.057805326,1.643179,-0.006367456,488.08807,6.438933,0.48521838,0.46088132,0.1699754,0.13124348,inf,inf,inf,inf,1,1,1,1,2,0,2,1,3,1,1,1,0,0
119688000,119688000,908000,47.3977508,8.5456073,-29.78908,-2.6214693,-6.309128,2.5823436e-05,0.0073877177,0.0,-0.466711,-0.062427852,0.03525708,0.01589557,0.0008346232,-0.00024752718,-0.010746645,1.8257349,0.13767473,-0.0127740195,1.6427835,-0.006367456,488.08807,6.429738,0.49691534,0.4615902,0.17504956,0.13244416,inf,inf,inf,inf,1,1,1,1,2,0,2,1,3,1,1,1,0,0
120184000,120184000,908000,47.3977508,8.5456073,-29.825308,-2.639471,-6.294224,2.5823436e-05,0.0073877177,0.0,0.4299764,0.0076007545,0.011978951,0.0027293374,0.0008346232,-0.00024752718,-0.010746645,1.746105,0.13949765,-0.056563873,1.6424117,-0.006367456,488.08807,6.414834,0.4642829,0.45617017,0.16417846,0.12842107,inf,inf,inf,inf,1,1,1,1,2,0,2,1,3,1,1,1,0,0
120688000,120688000,908000,47.3977508,8.5456073,-29.434612,-2.6236537,-6.2906814,2.5823436e-05,0.0073877177,0.0,1.1782798,0.06998868,-0.0018763975,-0.007085278,0.0008346232,-0.00024752718,-0.010746645,1.2204057,0.13595864,-0.026488675,1.6419781,-0.006367456,488.08807,6.4112916,0.47504717,0.46074224,0.17088728,0.12998335,inf,inf,inf,inf,1,1,1,1,2,0,2,1,3,1,1,1,0,0
121184000,121184000,908000,47.3977508,8.5456073,-28.73911,-2.5824623,-6.293627,2.5823436e-05,0.0073877177,0.0,1.5760798,0.11180855,-0.011168355,-0.014174448,0.0008346232,-0.00024752718,-0.010746645,0.3906352,0.08016638,-0.022862105,1.6416496,-0.006367456,488.08807,6.414237,0.44755858,0.45180365,0.15982702,0.12577382,inf,inf,inf,inf,1,1,1,1,2,0,2,1,3,1,1,1,0,0
121688000,121688000,908000,47.3977508,8.5456073,-27.9228,-2.5197477,-6.2915063,2.5823436e-05,0.0073877177,0.0,1.5427035,0.12522851,-0.014511554,-0.0092526,0.0008346232,-0.00024752718,-0.010746645,-0.55815905,-0.023219006,-0.00568293,1.6419626,-0.006367456,488.08807,6.4121165,0.4599351,0.45651057,0.16446708,0.12793948,inf,inf,inf,inf,1,1,1,1,2,0,2,1,3,1,1,1,0,0
122184000,122184000,908000,47.3977508,8.5456073,-27.233664,-2.462883,-6.2797513,2.5823436e-05,0.0073877177,0.0,1.082883,0.09699421,-0.004704683,0.011075562,0.0008346232,-0.00024752718,-0.010746645,-1.3304737,-0.11235409,-0.016896984,1.642303,-0.006367456,488.08807,6.4003615,0.47208205,0.45677602,0.16759983,0.12945169,inf,inf,inf,inf,1,1,1,1,2,0,2,1,3,1,1,1,0,0
122688000,122688000,908000,47.3977508,8.5456073,-26.843388,-2.4283864,-6.2670927,2.5823436e-05,0.0073877177,0.0,0.29581496,0.036847223,-0.009455384,0.010875424,0.0008346232,-0.00024752718,-0.010746645,-1.7907498,-0.10475892,-0.015274621,1.6423914,-0.006367456,488.08807,6.387703,0.48555005,0.4617143,0.17180851,0.1315677,inf,inf,inf,inf,1,1,1,1,2,0,2,1,3,1,1,1,0,0
123184000,123184000,908000,47.3977508,8.5456073,-26.883286,-2.419707,-6.256774,2.5823436e-05,0.0073877177,0.0,-0.6046887,-0.03041097,-0.02192363,0.003943895,0.0008346232,-0.00024752718,-0.010746645,-1.8390486,-0.13104433,-0.013549811,1.6429169,-0.006367456,488.08807,6.377384,0.45658767,0.45286682,0.16057716,0.12741365,inf,inf,inf,inf,1,1,1,1,2,0,2,1,3,1,1,1,0,0
123688000,123688000,908000,47.3977508,8.5456073,-27.370863,-2.4438415,-6.242822,2.5823436e-05,0.0073877177,0.0,-1.4229683,-0.09835971,-0.0320058,0.004778253,0.0008346232,-0.00024752718,-0.010746645,-1.4531351,-0.12610169,-0.10364688,1.643645,-0.006367456,488.08807,6.3634324,0.46833786,0.4575694,0.16681603,0.12920664,inf,inf,inf,inf,1,1,1,1,2,0,2,1,3,1,1,1,0,0
124184000,124184000,908000,47.3977508,8.5456073,-28.200455,-2.5052176,-6.2461767,2.5823436e-05,0.0073877177,0.0,-1.9370817,-0.14579968,-0.051959682,-0.016514,0.0008346232,-0.00024752718,-0.010746645,-0.6659223,-0.08750315,-0.0014258547,1.6435572,-0.006367456,488.08807,6.366787,0.47955963,0.4577737,0.17202415,0.13030729,inf,inf,inf,inf,1,1,1,1,2,0,2,1,3,1,1,1,0,0
124688000,124688000,908000,47.3977508,8.5456073,-29.216494,-2.5793693,-6.255357,2.5823436e-05,0.0073877177,0.0,-2.0353825,-0.15548345,-0.053533055,-0.019823804,0.0008346232,-0.00024752718,-0.010746645,0.29917753,-0.008361705,0.014775432,1.6436403,-0.006367456,488.08807,6.375967,0.49212894,0.46284035,0.17601961,0.13227649,inf,inf,inf,inf,1,1,1,1,2,0,2,1,3,1,1,1,0,0
125184000,125184000,908000,47.3977508,8.5456073,-30.16679,-2.6517718,-6.2652082,2.5823436e-05,0.0073877177,0.0,-1.6932243,-0.13390319,-0.039732326,-0.009692757,0.0008346232,-0.00024752718,-0.010746645,1.1174481,0.09552643,0.053755935,1.6434412,-0.006367456,488.08807,6.3858185,0.46361053,0.45412523,0.16357222,0.12853332,inf,inf,inf,inf,1,1,1,1,2,0,2,1,3,1,1,1,0,0
125688000,125688000,908000,47.3977508,8.5456073,-30.874237,-2.7177775,-6.262777,2.5823436e-05,0.0073877177,0.0,-0.9857639,-0.08423485,-0.016139207,0.012980438,0.0008346232,-0.00024752718,-0.010746645,1.6568986,0.12980723,-0.004037283,1.6430618,-0.006367456,488.08807,6.383387,0.44236168,0.45085475,0.15546067,0.12596922,inf,inf,inf,inf,1,1,1,1,2,0,2,1,3,1,1,1,0,0
126184000,126184000,908000,47.3977508,8.5456073,-31.170776,-2.7570531,-6.2611756,2.5823436e-05,0.0073877177,0.0,-0.10125799,-0.020255651,-0.020129643,0.0051527657,0.0008346232,-0.00024752718,-0.010746645,1.8764939,0.14772645,-0.05150679,1.6424081,-0.006367456,488.08807,6.381786,0.45610574,0.4516912,0.16342898,0.12775338,inf,inf,inf,inf,1,1,1,1,2,0,2,1,3,1,1,1,0,0
126688000,126688000,908000,47.3977508,8.5456073,-31.018234,-2.7649193,-6.262252,2.5823436e-05,0.0073877177,0.0,0.76086986,0.04847018,-0.025714505,-0.0021023385,0.0008346232,-0.00024752718,-0.010746645,1.5377322,0.20179768,-0.02457015,1.6420045,-0.006367456,488.08807,6.382862,0.4713972,0.4570455,0.17262177,0.12999104,inf,inf,inf,inf,1,1,1,1,2,0,2,1,3,1,1,1,0,0
127184000,127184000,908000,47.3977508,8.5456073,-30.487469,-2.7348733,-6.25925,2.5823436e-05,0.0073877177,0.0,1.3641292,0.10537416,-0.036691792,-0.008654501,0.0008346232,-0.00024752718,-0.010746645,0.851531,0.1185902,-0.03669597,1.6416888,-0.006367456,488.08807,6.3798604,0.44679978,0.44919473,0.16312121,0.12625521,inf,inf,inf,inf,1,1,1,1,2,0,2,1,3,1,1,1,0,0
127688000,127688000,908000,47.3977508,8.5456073,-29.716076,-2.6858778,-6.2590013,2.5823436e-05,0.0073877177,0.0,1.5817235,0.13109796,-0.042842347,-0.009392336,0.0008346232,-0.00024752718,-0.010746645,-0.03361277,-0.020118458,-0.04291534,1.6415629,-0.006367456,488.08807,6.3796115,0.46013957,0.45435718,0.16802341,0.12842494,inf,inf,inf,inf,1,1,1,1,2,0,2,1,3,1,1,1,0,0
128184000,128184000,908000,47.3977508,8.5456073,-28.94113,-2.622587,-6.259317,2.5823436e-05,0.0073877177,0.0,1.3566062,0.12424857,-0.04089009,-0.00405348,0.0008346232,-0.00024752718,-0.010746645,-0.895648,-0.040236216,-0.014998018,1.6418289,-0.006367456,488.08807,6.379927,0.4729638,0.45511904,0.17074677,0.12996444,inf,inf,inf,inf,1,1,1,1,2,0,2,1,3,1,1,1,0,0
128688000,128688000,908000,47.3977508,8.5456073,-28.357471,-2.5644488,-6.2611794,2.5823436e-05,0.0073877177,0.0,0.7347477,0.083548896,-0.022356635,0.009865493,0.0008346232,-0.00024752718,-0.010746645,-1.5804001,-0.1317101,0.019243916,1.6422766,-0.006367456,488.08807,6.3817897,0.4867584,0.46061322,0.17341286,0.13216215,inf,inf,inf,inf,1,1,1,1,2,0,2,1,3,1,1,1,0,0
129184000,129184000,908000,47.3977508,8.5456073,-28.147799,-2.534229,-6.258086,2.5823436e-05,0.0073877177,0.0,-0.12135551,0.018820005,-0.017515276,0.012091643,0.0008346232,-0.00024752718,-0.010746645,-1.8500153,-0.14120086,-0.010987743,1.6425384,-0.006367456,488.08807,6.3786964,0.4572885,0.45209834,0.16043189,0.1279865,inf,inf,inf,inf,1,1,1,1,2,0,2,1,3,1,1,1,0,0
129688000,129688000,908000,47.3977508,8.5456073,-28.389975,-2.5365717,-6.2477326,2.5823436e-05,0.0073877177,0.0,-1.0263816,-0.057462256,-0.025912121,0.008839404,0.0008346232,-0.00024752718,-0.010746645,-1.7569826,-0.15961309,-0.016166827,1.6432366,-0.006367456,488.08807,6.368343,0.469017,0.4572051,0.16589096,0.12974866,inf,inf,inf,inf,1,1,1,1,2,0,2,1,3,1,1,1,0,0
130184000,130184000,908000,47.3977508,8.5456073,-29.035414,-2.575019,-6.245174,2.5823436e-05,0.0073877177,0.0,-1.7282228,-0.122489,-0.038801096,-0.0031808051,0.0008346232,-0.00024752718,-0.010746645,-1.1300558,-0.11173565,-0.047966834,1.6434256,-0.006367456,488.08807,6.365784,0.4801249,0.457623,0.17138149,0.13068148,inf,inf,inf,inf,1,1,1,1,2,0,2,1,3,1,1,1,0,0
130688000,130688000,908000,47.3977508,8.5456073,-29.975168,-2.6426198,-6.257895,2.5823436e-05,0.0073877177,0.0,-2.0756092,-0.16337702,-0.045609772,-0.016991045,0.0008346232,-0.00024752718,-0.010746645,-0.28636077,-0.07727997,-0.0008353963,1.6434972,-0.006367456,488.08807,6.378505,0.49249256,0.4626845,0.17617762,0.13239315,inf,inf,inf,inf,1,1,1,1,2,0,2,1,3,1,1,1,0,0
131184000,131184000,908000,47.3977508,8.5456073,-30.9749,-2.720665,-6.2667937,2.5823436e-05,0.0073877177,0.0,-1.9757377,-0.16891775,-0.040606014,-0.012998092,0.0008346232,-0.00024752718,-0.010746645,0.6187429,0.044532772,0.023270024,1.6432076,-0.006367456,488.08807,6.387404,0.46090156,0.45734832,0.16188245,0.12852606,inf,inf,inf,inf,1,1,1,1,2,0,2,1,3,1,1,1,0,0
131688000,131688000,908000,47.3977508,8.5456073,-31.8533,-2.7869303,-6.267924,2.5823436e-05,0.0073877177,0.0,-1.4557581,-0.13484727,-0.023461055,0.005282796,0.0008346232,-0.00024752718,-0.010746645,1.4015855,0.1120095,0.03360677,1.6430451,-0.006367456,488.08807,6.388534,0.47197545,0.45810395,0.16510512,0.12982337,inf,inf,inf,inf,1,1,1,1,2,0,2,1,3,1,1,1,0,0
132184000,132184000,908000,47.3977508,8.5456073,-32.401253,-2.827648,-6.273757,2.5823436e-05,0.0073877177,0.0,-0.6565602,-0.07601456,-0.008046849,0.010150301,0.0008346232,-0.00024752718,-0.010746645,1.7752074,0.121493205,0.02757646,1.6427805,-0.006367456,488.08807,6.394367,0.48260584,0.46222904,0.16932203,0.13140908,inf,inf,inf,inf,1,1,1,1,2,0,2,1,3,1,1,1,0,0
132688000,132688000,908000,47.3977508,8.5456073,-32.516743,-2.8364558,-6.2749257,2.5823436e-05,0.0073877177,0.0,0.2544094,-0.003682596,-0.009927435,0.003631486,0.0008346232,-0.00024752718,-0.010746645,1.7031325,0.14005215,0.02445001,1.6424326,-0.006367456,488.08807,6.395536,0.49470568,0.4631234,0.17588036,0.13248372,inf,inf,inf,inf,1,1,1,1,2,0,2,1,3,1,1,1,0,0
133184000,133184000,908000,47.3977508,8.5456073,-32.200253,-2.8091156,-6.269185,2.5823436e-05,0.0073877177,0.0,1.0265034,0.05663361,-0.015737819,0.0020369133,0.0008346232,-0.00024752718,-0.010746645,1.3527597,0.09451198,-0.0441838,1.6421875,-0.006367456,488.08807,6.3897953,0.4623631,0.45764774,0.16452388,0.12835805,inf,inf,inf,inf,1,1,1,1,2,0,2,1,3,1,1,1,0,0
133688000,133688000,908000,47.3977508,8.5456073,-31.543646,-2.753539,-6.270718,2.5823436e-05,0.0073877177,0.0,1.4916077,0.09928596,-0.03088698,-0.012311834,0.0008346232,-0.00024752718,-0.010746645,0.50100374,0.07420968,-0.0012731178,1.6419342,-0.006367456,488.08807,6.3913283,0.47337052,0.45824808,0.16993955,0.12945029,inf,inf,inf,inf,1,1,1,1,2,0,2,1,3,1,1,1,0,0
134184000,134184000,908000,47.3977508,8.5456073,-30.760834,-2.6807683,-6.287485,2.5823436e-05,0.0073877177,0.0,1.522429,0.1110541,-0.023494726,-0.014456704,0.0008346232,-0.00024752718,-0.010746645,-0.39227527,-0.039145637,0.0744909,1.642128,-0.006367456,488.08807,6.4080954,0.48392,0.461993,0.17296109,0.13100545,inf,inf,inf,inf,1,1,1,1,2,0,2,1,3,1,1,1,0,0
134688000,134688000,908000,47.3977508,8.5456073,-30.04887,-2.6089013,-6.296049,2.5823436e-05,0.0073877177,0.0,1.1140335,0.08367578,0.00211732,0.005649889,0.0008346232,-0.00024752718,-0.010746645,-1.2449493,-0.13652503,0.05328003,1.6424495,-0.006367456,488.08807,6.4166594,0.4957225,0.46242377,0.17518689,0.13224949,inf,inf,inf,inf,1,1,1,1,2,0,2,1,3,1,1,1,0,0
135184000,135184000,908000,47.3977508,8.5456073,-29.620678,-2.5565944,-6.2946186,2.5823436e-05,0.0073877177,0.0,0.3782871,0.028220361,0.016808039,0.0157131,0.0008346232,-0.00024752718,-0.010746645,-1.7729406,-0.14259218,-0.008760019,1.6427191,-0.006367456,488.08807,6.415229,0.4633021,0.45683208,0.16085869,0.12840033,inf,inf,inf,inf,1,1,1,1,2,0,2,1,3,1,1,1,0,0
135688000,135688000,908000,47.3977508,8.5456073,-29.613848,-2.5333145,-6.292529,2.5823436e-05,0.0073877177,0.0,-0.5305019,-0.045190606,0.015104677,0.0109948395,0.0008346232,-0.00024752718,-0.010746645,-1.8807228,-0.2057433,0.0018524005,1.6431911,-0.006367456,488.08807,6.4131393,0.47395787,0.46131465,0.1654726,0.13007247,inf,inf,inf,inf,1,1,1,1,2,0,2,1,3,1,1,1,0,0
136184000,136184000,908000,47.3977508,8.5456073,-30.052488,-2.5588658,-6.2875752,2.5823436e-05,0.0073877177,0.0,-1.3620069,-0.12082844,0.010812571,0.0073753837,0.0008346232,-0.00024752718,-0.010746645,-1.5094323,-0.16906978,-0.03592949,1.6431463,-0.006367456,488.08807,6.4081855,0.4840166,0.46128544,0.17083389,0.13093773,inf,inf,inf,inf,1,1,1,1,2,0,2,1,3,1,1,1,0,0
136688000,136688000,908000,47.3977508,8.5456073,-30.876978,-2.6160152,-6.284794,2.5823436e-05,0.0073877177,0.0,-1.9413537,-0.17470267,-0.003176012,-0.004090385,0.0008346232,-0.00024752718,-0.010746645,-0.8274553,-0.10135163,-0.0446327,1.6432337,-0.006367456,488.08807,6.405404,0.49558514,0.46216518,0.17643756,0.13204782,inf,inf,inf,inf,1,1,1,1,2,0,2,1,3,1,1,1,0,0
137184000,137184000,908000,47.3977508,8.5456073,-31.890453,-2.6822886,-6.285876,2.5823436e-05,0.0073877177,0.0,-2.1032977,-0.19293994,-0.015882803,-0.013108496,0.0008346232,-0.00024752718,-0.010746645,0.13018975,-0.051497318,-0.0025453044,1.6434054,-0.006367456,488.08807,6.406486,0.46323013,0.45680422,0.1628896,0.12821186,inf,inf,inf,inf,1,1,1,1,2,0,2,1,3,1,1,1,0,0
137688000,137688000,908000,47.3977508,8.5456073,-32.90619,-2.757302,-6.301537,2.5823436e-05,0.0073877177,0.0,-1.8183153,-0.17962822,-0.009571478,-0.015395434,0.0008346232,-0.00024752718,-0.010746645,0.9827393,0.054116707,0.10220147,1.6431708,-0.006367456,488.08807,6.4221473,0.47374964,0.45750532,0.16601583,0.12956077,inf,inf,inf,inf,1,1,1,1,2,0,2,1,3,1,1,1,0,0
138184000,138184000,908000,47.3977508,8.5456073,-33.67856,-2.8254702,-6.319282,2.5823436e-05,0.0073877177,0.0,-1.1662351,-0.13954039,0.029494576,0.007866521,0.0008346232,-0.00024752718,-0.010746645,1.6033607,0.08746885,0.072292045,1.6428119,-0.006367456,488.08807,6.4398923,0.4840637,0.46143025,0.16935848,0.13123418,inf,inf,inf,inf,1,1,1,1,2,0,2,1,3,1,1,1,0,0
138688000,138688000,908000,47.3977508,8.5456073,-34.069054,-2.8711958,-6.322372,2.5823436e-05,0.0073877177,0.0,-0.27765173,-0.07989201,0.044123504,0.01434613,0.0008346232,-0.00024752718,-0.010746645,1.8784587,0.13538082,0.004259869,1.6426232,-0.006367456,488.08807,6.442982,0.49561393,0.4660742,0.17481118,0.13291477,inf,inf,inf,inf,1,1,1,1,2,0,2,1,3,1,1,1,0,0
139184000,139184000,908000,47.3977508,8.5456073,-34.01623,-2.873674,-6.3197756,2.5823436e-05,0.0073877177,0.0,0.59815556,-0.010101237,0.03926369,0.008629055,0.0008346232,-0.00024752718,-0.010746645,1.6611187,0.112609744,-0.010924413,1.6422485,-0.006367456,488.08807,6.440386,0.4631244,0.45647812,0.16382799,0.12826869,inf,inf,inf,inf,1,1,1,1,2,0,2,1,3,1,1,1,0,0
139688000,139688000,908000,47.3977508,8.5456073,-33.563717,-2.8338325,-6.3350554,2.5823436e-05,0.0073877177,0.0,1.2646283,0.051469397,0.03963051,-0.0043740324,0.0008346232,-0.00024752718,-0.010746645,0.9927474,0.009361014,0.02419017,1.6420795,-0.006367456,488.08807,6.4556656,0.47678205,0.45763388,0.17226365,0.12978497,inf,inf,inf,inf,1,1,1,1,2,0,2,1,3,1,1,1,0,0
140184000,140184000,908000,47.3977508,8.5456073,-32.848495,-2.7791233,-6.345788,2.5823436e-05,0.0073877177,0.0,1.5538625,0.07609855,0.040831383,-0.008435778,0.0008346232,-0.00024752718,-0.010746645,0.12877059,0.009060924,-0.025609506,1.6420318,-0.006367456,488.08807,6.4663982,0.4506468,0.45311245,0.16156328,0.12652914,inf,inf,inf,inf,1,1,1,1,2,0,2,1,3,1,1,1,0,0
140688000,140688000,908000,47.3977508,8.5456073,-32.07144,-2.7049098,-6.356079,2.5823436e-05,0.0073877177,0.0,1.4026539,0.075559355,0.049446706,-0.0042185085,0.0008346232,-0.00024752718,-0.010746645,-0.73677015,-0.09495309,0.084116116,1.6425093,-0.006367456,488.08807,6.4766893,0.46302226,0.45424208,0.16541632,0.12823178,inf,inf,inf,inf,1,1,1,1,2,0,2,1,3,1,1,1,0,0
141184000,141184000,908000,47.3977508,8.5456073,-31.47596,-2.6461153,-6.353173,2.5823436e-05,0.0073877177,0.0,0.84816295,0.03214774,0.06896854,0.016407209,0.0008346232,-0.00024752718,-0.010746645,-1.5040656,-0.12133056,0.017066484,1.6426117,-0.006367456,488.08807,6.473783,0.4748739,0.45844796,0.16818523,0.13018392,inf,inf,inf,inf,1,1,1,1,2,0,2,1,3,1,1,1,0,0
141688000,141688000,908000,47.3977508,8.5456073,-31.22066,-2.6151812,-6.34348,2.5823436e-05,0.0073877177,0.0,0.00974562,-0.036535174,0.063640855,0.013611719,0.0008346232,-0.00024752718,-0.010746645,-1.8343241,-0.15029761,-0.020019708,1.6426761,-0.006367456,488.08807,6.4640903,0.48796058,0.4634154,0.17241369,0.13216925,inf,inf,inf,inf,1,1,1,1,2,0,2,1,3,1,1,1,0,0
142184000,142184000,908000,47.3977508,8.5456073,-31.406042,-2.6156979,-6.344991,2.5823436e-05,0.0073877177,0.0,-0.8783246,-0.10900382,0.067260206,0.012062533,0.0008346232,-0.00024752718,-0.010746645,-1.7196145,-0.1675993,-0.02221111,1.6431847,-0.006367456,488.08807,6.4656014,0.45808065,0.45426065,0.16090842,0.12778974,inf,inf,inf,inf,1,1,1,1,2,0,2,1,3,1,1,1,0,0
142688000,142688000,908000,47.3977508,8.5456073,-32.027725,-2.645085,-6.3394804,2.5823436e-05,0.0073877177,0.0,-1.6326891,-0.1678229,0.053122893,0.00039716484,0.0008346232,-0.00024752718,-0.010746645,-1.1897459,-0.16158548,-0.028057022,1.6431712,-0.006367456,488.08807,6.4600906,0.46940872,0.4588219,0.16669561,0.12946358,inf,inf,inf,inf,1,1,1,1,2,0,2,1,3,1,1,1,0,0
143184000,143184000,908000,47.3977508,8.5456073,-32.947697,-2.7043183,-6.3410344,2.5823436e-05,0.0073877177,0.0,-2.0347345,-0.20427589,0.041458163,-0.009178266,0.0008346232,-0.00024752718,-0.010746645,-0.40088773,-0.061414827,-0.008895992,1.6432385,-0.006367456,488.08807,6.4616446,0.48044804,0.45880452,0.1713991,0.1304979,inf,inf,inf,inf,1,1,1,1,2,0,2,1,3,1,1,1,0,0
143688000,143688000,908000,47.3977508,8.5456073,-33.995052,-2.7872972,-6.34326,2.5823436e-05,0.0073877177,0.0,-2.0077112,-0.21196993,0.03484739,-0.011724209,0.0008346232,-0.00024752718,-0.010746645,0.50057036,0.0144550055,-0.0034552065,1.6431781,-0.006367456,488.08807,6.46387,0.49283707,0.46348265,0.17517303,0.13237435,inf,inf,inf,inf,1,1,1,1,2,0,2,1,3,1,1,1,0,0
144184000,144184000,908000,47.3977508,8.5456073,-34.929523,-2.8712041,-6.346331,2.5823436e-05,0.0073877177,0.0,-1.5653315,-0.18684196,0.05263415,0.006452036,0.0008346232,-0.00024752718,-0.010746645,1.2804929,0.094609015,0.037776303,1.6430972,-0.006367456,488.08807,6.4669414,0.46113846,0.4578683,0.16098328,0.12857214,inf,inf,inf,inf,1,1,1,1,2,0,2,1,3,1,1,1,0,0
144688000,144688000,908000,47.3977508,8.5456073,-35.56809,-2.9416845,-6.34014,2.5823436e-05,0.0073877177,0.0,-0.790277,-0.1352848,0.06268159,0.015914977,0.0008346232,-0.00024752718,-0.010746645,1.8040414,0.13724367,0.028468667,1.6430202,-0.006367456,488.08807,6.46075,0.4721325,0.45833004,0.16531931,0.12980554,inf,inf,inf,inf,1,1,1,1,2,0,2,1,3,1,1,1,0,0
145184000,145184000,908000,47.3977508,8.5456073,-35.767445,-2.9798503,-6.3233347,2.5823436e-05,0.0073877177,0.0,0.10885005,-0.06502636,0.045426935,0.009075539,0.0008346232,-0.00024752718,-0.010746645,1.8440177,0.15143912,-0.07957592,1.6427656,-0.006367456,488.08807,6.443945,0.48271516,0.46209747,0.17112444,0.13124251,inf,inf,inf,inf,1,1,1,1,2,0,2,1,3,1,1,1,0,0
145688000,145688000,908000,47.3977508,8.5456073,-35.517735,-2.9828725,-6.3176036,2.5823436e-05,0.0073877177,0.0,0.9326683,0.0046239025,0.026362084,-0.0043317005,0.0008346232,-0.00024752718,-0.010746645,1.405551,0.09676374,-0.04970282,1.6422082,-0.006367456,488.08807,6.438214,0.4947152,0.46254632,0.17813791,0.13218346,inf,inf,inf,inf,1,1,1,1,2,0,2,1,3,1,1,1,0,0
146184000,146184000,908000,47.3977508,8.5456073,-34.929756,-2.95233,-6.307608,2.5823436e-05,0.0073877177,0.0,1.4450135,0.06129926,0.008410248,-0.009964765,0.0008346232,-0.00024752718,-0.010746645,0.62681144,0.070775755,-0.030686146,1.6418852,-0.006367456,488.08807,6.4282184,0.46246666,0.45681542,0.16546077,0.12810506,inf,inf,inf,inf,1,1,1,1,2,0,2,1,3,1,1,1,0,0
146688000,146688000,908000,47.3977508,8.5456073,-34.152225,-2.9037898,-6.302935,2.5823436e-05,0.0073877177,0.0,1.5451238,0.081704885,-0.0056881853,-0.013408576,0.0008346232,-0.00024752718,-0.010746645,-0.2663905,0.01964913,-0.012839212,1.6418576,-0.006367456,488.08807,6.4235454,0.47338706,0.45741382,0.16914077,0.12933998,inf,inf,inf,inf,1,1,1,1,2,0,2,1,3,1,1,1,0,0
147184000,147184000,908000,47.3977508,8.5456073,-33.43634,-2.8671958,-6.3020716,2.5823436e-05,0.0073877177,0.0,1.2063078,0.0604662,0.00667685,0.0018164815,0.0008346232,-0.00024752718,-0.010746645,-1.0897759,-0.07421382,0.047835518,1.6416994,-0.006367456,488.08807,6.422682,0.48390186,0.46134257,0.171213,0.13103594,inf,inf,inf,inf,1,1,1,1,2,0,2,1,3,1,1,1,0,0
147688000,147688000,908000,47.3977508,8.5456073,-32.963993,-2.8472717,-6.284504,2.5823436e-05,0.0073877177,0.0,0.49755335,0.011743315,0.008875519,0.014270702,0.0008346232,-0.00024752718,-0.010746645,-1.7256246,-0.18240717,-0.029563902,1.6423047,-0.006367456,488.08807,6.405114,0.49560425,0.4620463,0.17395657,0.13230707,inf,inf,inf,inf,1,1,1,1,2,0,2,1,3,1,1,1,0,0
148184000,148184000,908000,47.3977508,8.5456073,-32.890446,-2.8556032,-6.2665043,2.5823436e-05,0.0073877177,0.0,-0.38459858,-0.057635695,-0.013278128,0.0028142794,0.0008346232,-0.00024752718,-0.010746645,-1.8577644,-0.17330675,-0.011836178,1.6428227,-0.006367456,488.08807,6.3871145,0.4631457,0.45665497,0.16109128,0.12837055,inf,inf,inf,inf,1,1,1,1,2,0,2,1,3,1,1,1,0,0
148688000,148688000,908000,47.3977508,8.5456073,-33.27753,-2.8987648,-6.257748,2.5823436e-05,0.0073877177,0.0,-1.2508204,-0.12514098,-0.020344872,0.0015548217,0.0008346232,-0.00024752718,-0.010746645,-1.5422117,-0.1362797,-0.047863457,1.6430937,-0.006367456,488.08807,6.3783584,0.47364384,0.4573827,0.16654995,0.12945221,inf,inf,inf,inf,1,1,1,1,2,0,2,1,3,1,1,1,0,0
149184000,149184000,908000,47.3977508,8.5456073,-34.04726,-2.9657063,-6.2634797,2.5823436e-05,0.0073877177,0.0,-1.8616555,-0.17110574,-0.03300528,-0.015476539,0.0008346232,-0.00024752718,-0.010746645,-0.9212115,-0.06559887,0.008515081,1.6438718,-0.006367456,488.08807,6.38409,0.48374894,0.4612368,0.1716356,0.13085482,inf,inf,inf,inf,1,1,1,1,2,0,2,1,3,1,1,1,0,0
149688000,149688000,908000,47.3977508,8.5456073,-35.064846,-3.0544536,-6.268758,2.5823436e-05,0.0073877177,0.0,-2.0873363,-0.19032922,-0.03563448,-0.01689976,0.0008346232,-0.00024752718,-0.010746645,0.02518267,-0.035218913,-0.023198312,1.6435963,-0.006367456,488.08807,6.389368,0.49527737,0.46582043,0.17590423,0.13255279,inf,inf,inf,inf,1,1,1,1,2,0,2,1,3,1,1,1,0,0
150184000,150184000,908000,47.3977508,8.5456073,-36.07913,-3.1411452,-6.266853,2.5823436e-05,0.0073877177,0.0,-1.868673,-0.17168483,-0.0346898,-0.008447086,0.0008346232,-0.00024752718,-0.010746645,0.8769723,0.07206149,0.0143880015,1.6436627,-0.006367456,488.08807,6.387463,0.46280617,0.45615795,0.16163862,0.12817167,inf,inf,inf,inf,1,1,1,1,2,0,2,1,3,1,1,1,0,0
150688000,150688000,908000,47.3977508,8.5456073,-36.9021,-3.2159023,-6.261471,2.5823436e-05,0.0073877177,0.0,-1.2496911,-0.121141344,-0.018504506,0.011072097,0.0008346232,-0.00024752718,-0.010746645,1.5642599,0.10426143,0.002642162,1.6432734,-0.006367456,488.08807,6.382081,0.47338942,0.4605757,0.16522248,0.13000414,inf,inf,inf,inf,1,1,1,1,2,0,2,1,3,1,1,1,0,0
151184000,151184000,908000,47.3977508,8.5456073,-37.3419,-3.273864,-6.2588987,2.5823436e-05,0.0073877177,0.0,-0.39349067,-0.05574868,-0.019648688,0.006704633,0.0008346232,-0.00024752718,-0.010746645,1.8292617,0.15460154,-0.009208917,1.6427116,-0.006367456,488.08807,6.379509,0.48362887,0.4602629,0.17009467,0.13095516,inf,inf,inf,inf,1,1,1,1,2,0,2,1,3,1,1,1,0,0
151688000,151688000,908000,47.3977508,8.5456073,-37.3349,-3.298523,-6.2577133,2.5823436e-05,0.0073877177,0.0,0.5111553,0.019955413,-0.028872238,-0.0025559885,0.0008346232,-0.00024752718,-0.010746645,1.6723298,0.16581099,-0.017952172,1.6422443,-0.006367456,488.08807,6.3783236,0.49530494,0.46478137,0.176899,0.1325162,inf,inf,inf,inf,1,1,1,1,2,0,2,1,3,1,1,1,0,0
152184000,152184000,908000,47.3977508,8.5456073,-36.92261,-3.296182,-6.2525315,2.5823436e-05,0.0073877177,0.0,1.2119617,0.08339585,-0.03855321,-0.006740872,0.0008346232,-0.00024752718,-0.010746645,1.11373,0.14040412,-0.062078234,1.64169,-0.006367456,488.08807,6.373142,0.46278965,0.45897776,0.16512308,0.1283706,inf,inf,inf,inf,1,1,1,1,2,0,2,1,3,1,1,1,0,0
152688000,152688000,908000,47.3977508,8.5456073,-36.221924,-3.277157,-6.264885,2.5823436e-05,0.0073877177,0.0,1.5558268,0.12104297,-0.042329244,-0.016599238,0.0008346232,-0.00024752718,-0.010746645,0.2752948,0.06583622,0.006899237,1.6411331,-0.006367456,488.08807,6.385495,0.47353545,0.4593053,0.16980836,0.12946978,inf,inf,inf,inf,1,1,1,1,2,0,2,1,3,1,1,1,0,0
153184000,153184000,908000,47.3977508,8.5456073,-35.45348,-3.2407672,-6.275357,2.5823436e-05,0.0073877177,0.0,1.4561731,0.12751272,-0.03211758,-0.009876053,0.0008346232,-0.00024752718,-0.010746645,-0.67589456,-0.015076322,0.038187947,1.6412964,-0.006367456,488.08807,6.395967,0.48397225,0.46298897,0.17242186,0.1310889,inf,inf,inf,inf,1,1,1,1,2,0,2,1,3,1,1,1,0,0
153688000,153688000,908000,47.3977508,8.5456073,-34.819855,-3.1971061,-6.2711797,2.5823436e-05,0.0073877177,0.0,0.9300072,0.10635979,-0.012444525,0.012330151,0.0008346232,-0.00024752718,-0.010746645,-1.4115385,-0.06393724,0.04262011,1.6419059,-0.006367456,488.08807,6.39179,0.495681,0.4634359,0.17474476,0.13238034,inf,inf,inf,inf,1,1,1,1,2,0,2,1,3,1,1,1,0,0
154184000,154184000,908000,47.3977508,8.5456073,-34.517982,-3.1803892,-6.2552295,2.5823436e-05,0.0073877177,0.0,0.12117139,0.05002864,-0.020040853,0.012471181,0.0008346232,-0.00024752718,-0.010746645,-1.8338468,-0.0921315,-0.058201138,1.6426797,-0.006367456,488.08807,6.3758397,0.46308392,0.457738,0.16079143,0.128467,inf,inf,inf,inf,1,1,1,1,2,0,2,1,3,1,1,1,0,0
154688000,154688000,908000,47.3977508,8.5456073,-34.64594,-3.1869266,-6.2477403,2.5823436e-05,0.0073877177,0.0,-0.791674,-0.019968936,-0.028361019,0.0065495977,0.0008346232,-0.00024752718,-0.010746645,-1.7788813,-0.14823824,-0.034377906,1.643051,-0.006367456,488.08807,6.3683505,0.4735911,0.45808148,0.16574119,0.12953928,inf,inf,inf,inf,1,1,1,1,2,0,2,1,3,1,1,1,0,0
155184000,155184000,908000,47.3977508,8.5456073,-35.204704,-3.228218,-6.252883,2.5823436e-05,0.0073877177,0.0,-1.5664197,-0.08746416,-0.03130582,-0.0032786482,0.0008346232,-0.00024752718,-0.010746645,-1.3249164,-0.09833406,-0.007057562,1.6435833,-0.006367456,488.08807,6.373493,0.44623825,0.4527991,0.1560451,0.1257289,inf,inf,inf,inf,1,1,1,1,2,0,2,1,3,1,1,1,0,0
155688000,155688000,908000,47.3977508,8.5456073,-36.09663,-3.302012,-6.264569,2.5823436e-05,0.0073877177,0.0,-2.0313065,-0.12918878,-0.035115175,-0.01458432,0.0008346232,-0.00024752718,-0.010746645,-0.5285793,-0.0058710864,0.015001743,1.6437305,-0.006367456,488.08807,6.385179,0.45823798,0.4571848,0.16250962,0.12772538,inf,inf,inf,inf,1,1,1,1,2,0,2,1,3,1,1,1,0,0
156184000,156184000,908000,47.3977508,8.5456073,-37.126465,-3.3887384,-6.279772,2.5823436e-05,0.0073877177,0.0,-2.0690582,-0.1394372,-0.029514184,-0.015939757,0.0008346232,-0.00024752718,-0.010746645,0.35825837,0.026606305,-0.0035455448,1.6437694,-0.006367456,488.08807,6.400382,0.47002926,0.45709872,0.16706975,0.12913083,inf,inf,inf,inf,1,1,1,1,2,0,2,1,3,1,1,1,0,0
156688000,156688000,908000,47.3977508,8.5456073,-38.099,-3.4679067,-6.288149,2.5823436e-05,0.0073877177,0.0,-1.6713691,-0.113003165,-0.011707572,-0.00080577016,0.0008346232,-0.00024752718,-0.010746645,1.1904427,0.11884848,0.07146037,1.6432344,-0.006367456,488.08807,6.408759,0.4833427,0.46175674,0.17127436,0.1313071,inf,inf,inf,inf,1,1,1,1,2,0,2,1,3,1,1,1,0,0
157184000,157184000,908000,47.3977508,8.5456073,-38.784096,-3.5255377,-6.2914424,2.5823436e-05,0.0073877177,0.0,-0.94530755,-0.055203073,0.011503416,0.015648386,0.0008346232,-0.00024752718,-0.010746645,1.728581,0.10353477,0.0015106051,1.6428885,-0.006367456,488.08807,6.4120526,0.45470935,0.45644933,0.15934236,0.12775259,inf,inf,inf,inf,1,1,1,1,2,0,2,1,3,1,1,1,0,0
157688000,157688000,908000,47.3977508,8.5456073,-39.062294,-3.5541005,-6.2878933,2.5823436e-05,0.0073877177,0.0,-0.041908186,0.01794255,0.0044141538,0.006317138,0.0008346232,-0.00024752718,-0.010746645,1.811093,0.14772138,-0.041941177,1.6424266,-0.006367456,488.08807,6.4085035,0.4692771,0.45747456,0.1676245,0.12952323,inf,inf,inf,inf,1,1,1,1,2,0,2,1,3,1,1,1,0,0
158184000,158184000,908000,47.3977508,8.5456073,-38.888462,-3.5487518,-6.2801986,2.5823436e-05,0.0073877177,0.0,0.7870686,0.08919086,-0.006452279,0.0018847426,0.0008346232,-0.00024752718,-0.010746645,1.4591887,0.12365745,-0.054894943,1.6419098,-0.006367456,488.08807,6.400809,0.44523144,0.449184,0.15998058,0.12577891,inf,inf,inf,inf,1,1,1,1,2,0,2,1,3,1,1,1,0,0
158688000,158688000,908000,47.3977508,8.5456073,-38.336227,-3.5107338,-6.279697,2.5823436e-05,0.0073877177,0.0,1.358333,0.14211155,-0.019841071,-0.008847658,0.0008346232,-0.00024752718,-0.010746645,0.7602938,0.0702379,-0.051319595,1.6412262,-0.006367456,488.08807,6.400307,0.458179,0.45404935,0.1668038,0.12787375,inf,inf,inf,inf,1,1,1,1,2,0,2,1,3,1,1,1,0,0
159184000,159184000,908000,47.3977508,8.5456073,-37.58982,-3.4573722,-6.282977,2.5823436e-05,0.0073877177,0.0,1.5188463,0.15964091,-0.028314747,-0.014468796,0.0008346232,-0.00024752718,-0.010746645,-0.15333213,0.042757396,-0.00013969837,1.641147,-0.006367456,488.08807,6.4035873,0.47083086,0.4546551,0.17123744,0.12938827,inf,inf,inf,inf,1,1,1,1,2,0,2,1,3,1,1,1,0,0
159688000,159688000,908000,47.3977508,8.5456073,-36.849033,-3.4022875,-6.280914,2.5823436e-05,0.0073877177,0.0,1.2306498,0.1477881,-0.016684813,0.0024031545,0.0008346232,-0.00024752718,-0.010746645,-1.0100645,-0.020641193,0.018792225,1.6416757,-0.006367456,488.08807,6.401524,0.48467326,0.45995778,0.17433067,0.1316594,inf,inf,inf,inf,1,1,1,1,2,0,2,1,3,1,1,1,0,0
160184000,160184000,908000,47.3977508,8.5456073,-36.346134,-3.3671603,-6.2665434,2.5823436e-05,0.0073877177,0.0,0.57512033,0.09723037,-0.009863436,0.016345963,0.0008346232,-0.00024752718,-0.010746645,-1.6352959,-0.09662394,-0.033121552,1.64175,-0.006367456,488.08807,6.3871536,0.4555107,0.45139074,0.16013466,0.12765017,inf,inf,inf,inf,1,1,1,1,2,0,2,1,3,1,1,1,0,0
160688000,160688000,908000,47.3977508,8.5456073,-36.21855,-3.3537667,-6.252915,2.5823436e-05,0.0073877177,0.0,-0.31244916,0.028944837,-0.02137108,0.011304844,0.0008346232,-0.00024752718,-0.010746645,-1.8996738,-0.12832376,-0.050394792,1.6424823,-0.006367456,488.08807,6.373525,0.46735406,0.45626318,0.16440925,0.12953664,inf,inf,inf,inf,1,1,1,1,2,0,2,1,3,1,1,1,0,0
161184000,161184000,908000,47.3977508,8.5456073,-36.549564,-3.370054,-6.2421713,2.5823436e-05,0.0073877177,0.0,-1.1904294,-0.04345518,-0.03479208,0.003977144,0.0008346232,-0.00024752718,-0.010746645,-1.659119,-0.11524176,-0.039114613,1.6431824,-0.006367456,488.08807,6.3627815,0.4785302,0.4604098,0.16967022,0.13104096,inf,inf,inf,inf,1,1,1,1,2,0,2,1,3,1,1,1,0,0
161688000,161688000,908000,47.3977508,8.5456073,-37.29671,-3.411519,-6.2330904,2.5823436e-05,0.0073877177,0.0,-1.866746,-0.101621665,-0.054575074,-0.0082575455,0.0008346232,-0.00024752718,-0.010746645,-1.0041603,-0.09321227,-0.0380855,1.6436664,-0.006367456,488.08807,6.3537006,0.49088764,0.46120736,0.17546687,0.13207427,inf,inf,inf,inf,1,1,1,1,2,0,2,1,3,1,1,1,0,0
162184000,162184000,908000,47.3977508,8.5456073,-38.29094,-3.4727893,-6.238244,2.5823436e-05,0.0073877177,0.0,-2.1552014,-0.13179809,-0.06547785,-0.01820051,0.0008346232,-0.00024752718,-0.010746645,-0.17726658,-0.02150637,0.011439434,1.6436989,-0.006367456,488.08807,6.3588543,0.45967132,0.4557666,0.16231021,0.1280899,inf,inf,inf,inf,1,1,1,1,2,0,2,1,3,1,1,1,0,0
162688000,162688000,908000,47.3977508,8.5456073,-39.34742,-3.5478694,-6.2332234,2.5823436e-05,0.0073877177,0.0,-2.0007071,-0.13465399,-0.07152553,-0.013230637,0.0008346232,-0.00024752718,-0.010746645,0.73243296,0.056787167,-0.0027380881,1.6433123,-0.006367456,488.08807,6.3538337,0.4707253,0.46023625,0.16572474,0.12987752,inf,inf,inf,inf,1,1,1,1,2,0,2,1,3,1,1,1,0,0
163184000,163184000,908000,47.3977508,8.5456073,-40.215466,-3.6125906,-6.232876,2.5823436e-05,0.0073877177,0.0,-1.4393345,-0.09848115,-0.054877296,0.0044997325,0.0008346232,-0.00024752718,-0.010746645,1.4821429,0.10108103,0.013552605,1.6431464,-0.006367456,488.08807,6.353486,0.4813736,0.45997933,0.16885363,0.13093063,inf,inf,inf,inf,1,1,1,1,2,0,2,1,3,1,1,1,0,0
163688000,163688000,908000,47.3977508,8.5456073,-40.74635,-3.6552544,-6.2297645,2.5823436e-05,0.0073877177,0.0,-0.5937265,-0.042514376,-0.048507854,0.007679212,0.0008346232,-0.00024752718,-0.010746645,1.8318268,0.11937443,-0.018228775,1.6425316,-0.006367456,488.08807,6.3503747,0.49331394,0.46442676,0.17380582,0.13259988,inf,inf,inf,inf,1,1,1,1,2,0,2,1,3,1,1,1,0,0
164184000,164184000,908000,47.3977508,8.5456073,-40.822712,-3.6681259,-6.2322326,2.5823436e-05,0.0073877177,0.0,0.30979443,0.026185585,-0.052695666,-0.0012948229,0.0008346232,-0.00024752718,-0.010746645,1.7569182,0.13382469,-0.018334946,1.6420286,-0.006367456,488.08807,6.352843,0.46126416,0.4548298,0.1625638,0.1279637,inf,inf,inf,inf,1,1,1,1,2,0,2,1,3,1,1,1,0,0
164688000,164688000,908000,47.3977508,8.5456073,-40.484196,-3.6382313,-6.2444773,2.5823436e-05,0.0073877177,0.0,1.0572715,0.08995414,-0.049548037,-0.008285036,0.0008346232,-0.00024752718,-0.010746645,1.1994845,0.09402169,0.009484588,1.641752,-0.006367456,488.08807,6.3650875,0.47209623,0.45927152,0.16884845,0.12953061,inf,inf,inf,inf,1,1,1,1,2,0,2,1,3,1,1,1,0,0
165184000,165184000,908000,47.3977508,8.5456073,-39.85137,-3.581111,-6.258973,2.5823436e-05,0.0073877177,0.0,1.4555855,0.12561877,-0.04758697,-0.015299296,0.0008346232,-0.00024752718,-0.010746645,0.3971708,0.013189884,0.004325993,1.6416885,-0.006367456,488.08807,6.3795834,0.48262304,0.4593157,0.17350557,0.13051546,inf,inf,inf,inf,1,1,1,1,2,0,2,1,3,1,1,1,0,0
165688000,165688000,908000,47.3977508,8.5456073,-39.09087,-3.5102608,-6.261554,2.5823436e-05,0.0073877177,0.0,1.4254755,0.12722994,-0.04493813,-0.00892491,0.0008346232,-0.00024752718,-0.010746645,-0.52415067,-0.07180178,-0.019743105,1.6417849,-0.006367456,488.08807,6.382164,0.49452558,0.46408272,0.1767703,0.13236026,inf,inf,inf,inf,1,1,1,1,2,0,2,1,3,1,1,1,0,0
166184000,166184000,908000,47.3977508,8.5456073,-38.448578,-3.4409058,-6.265559,2.5823436e-05,0.0073877177,0.0,0.9725177,0.09610877,-0.02640924,0.0069112303,0.0008346232,-0.00024752718,-0.010746645,-1.298789,-0.08863829,0.06840936,1.6421329,-0.006367456,488.08807,6.3861694,0.4620697,0.45468262,0.16145152,0.12803689,inf,inf,inf,inf,1,1,1,1,2,0,2,1,3,1,1,1,0,0
166688000,166688000,908000,47.3977508,8.5456073,-38.095432,-3.3968434,-6.2558208,2.5823436e-05,0.0073877177,0.0,0.19782962,0.034088362,-0.015464613,0.020305714,0.0008346232,-0.00024752718,-0.010746645,-1.8036968,-0.17004417,-0.04050787,1.6424016,-0.006367456,488.08807,6.376431,0.4727378,0.4592334,0.16465591,0.12982942,inf,inf,inf,inf,1,1,1,1,2,0,2,1,3,1,1,1,0,0
167184000,167184000,908000,47.3977508,8.5456073,-38.16769,-3.3822193,-6.239594,2.5823436e-05,0.0073877177,0.0,-0.6951937,-0.040760793,-0.03226236,0.011809159,0.0008346232,-0.00024752718,-0.010746645,-1.8264244,-0.1684793,-0.045834105,1.6427363,-0.006367456,488.08807,6.360204,0.48274723,0.46304828,0.16903383,0.13125636,inf,inf,inf,inf,1,1,1,1,2,0,2,1,3,1,1,1,0,0
167688000,167688000,908000,47.3977508,8.5456073,-38.703064,-3.3972578,-6.2415032,2.5823436e-05,0.0073877177,0.0,-1.5162492,-0.11215997,-0.04121996,-0.0023985468,0.0008346232,-0.00024752718,-0.010746645,-1.4153807,-0.13523573,-0.010016373,1.6433071,-0.006367456,488.08807,6.3621135,0.49415413,0.46351355,0.17482048,0.1322089,inf,inf,inf,inf,1,1,1,1,2,0,2,1,3,1,1,1,0,0
168184000,168184000,908000,47.3977508,8.5456073,-39.580696,-3.442225,-6.247413,2.5823436e-05,0.0073877177,0.0,-2.0327153,-0.16341811,-0.047449347,-0.011548088,0.0008346232,-0.00024752718,-0.010746645,-0.6592432,-0.08948081,0.012470408,1.6435275,-0.006367456,488.08807,6.3680234,0.4619179,0.45771837,0.1623846,0.1281163,inf,inf,inf,inf,1,1,1,1,2,0,2,1,3,1,1,1,0,0
168688000,168688000,908000,47.3977508,8.5456073,-40.65203,-3.491311,-6.24822,2.5823436e-05,0.0073877177,0.0,-2.1369698,-0.17860839,-0.054652575,-0.013232661,0.0008346232,-0.00024752718,-0.010746645,0.2470565,-0.03936535,-0.061275434,1.6431576,-0.006367456,488.08807,6.36883,0.47238144,0.4619611,0.1663193,0.12983891,inf,inf,inf,inf,1,1,1,1,2,0,2,1,3,1,1,1,0,0
169184000,169184000,908000,47.3977508,8.5456073,-41.65794,-3.547096,-6.2623324,2.5823436e-05,0.0073877177,0.0,-1.7948148,-0.1611663,-0.043981034,-0.0099036,0.0008346232,-0.00024752718,-0.010746645,1.111821,0.043697216,0.048558224,1.6430016,-0.006367456,488.08807,6.3829427,0.48256373,0.46147576,0.16930011,0.13091892,inf,inf,inf,inf,1,1,1,1,2,0,2,1,3,1,1,1,0,0
169688000,169688000,908000,47.3977508,8.5456073,-42.42234,-3.592352,-6.269333,2.5823436e-05,0.0073877177,0.0,-1.0867314,-0.116094895,-0.012822345,0.012453619,0.0008346232,-0.00024752718,-0.010746645,1.6934799,0.121485375,0.019060446,1.6427351,-0.006367456,488.08807,6.389943,0.49412182,0.4657627,0.17332055,0.13268602,inf,inf,inf,inf,1,1,1,1,2,0,2,1,3,1,1,1,0,0
170184000,170184000,908000,47.3977508,8.5456073,-42.77507,-3.604756,-6.2735386,2.5823436e-05,0.0073877177,0.0,-0.195921,-0.04973989,-0.005645921,0.009980583,0.0008346232,-0.00024752718,-0.010746645,1.8758827,0.1255537,-0.0009769573,1.6425354,-0.006367456,488.08807,6.394149,0.46185976,0.45590097,0.1616085,0.12809722,inf,inf,inf,inf,1,1,1,1,2,0,2,1,3,1,1,1,0,0
170688000,170688000,908000,47.3977508,8.5456073,-42.686188,-3.588352,-6.273047,2.5823436e-05,0.0073877177,0.0,0.676053,0.020603284,-0.011607902,0.0029037267,0.0008346232,-0.00024752718,-0.010746645,1.5982097,0.110335425,-0.011902302,1.6424904,-0.006367456,488.08807,6.393657,0.47245643,0.46008775,0.16815922,0.12964171,inf,inf,inf,inf,1,1,1,1,2,0,2,1,3,1,1,1,0,0
171184000,171184000,908000,47.3977508,8.5456073,-42.20561,-3.5515347,-6.2743287,2.5823436e-05,0.0073877177,0.0,1.2963347,0.069437906,-0.020910546,-0.006140696,0.0008346232,-0.00024752718,-0.010746645,0.92008114,0.039660253,-0.018947756,1.642067,-0.006367456,488.08807,6.394939,0.48279107,0.45973074,0.17383313,0.13047747,inf,inf,inf,inf,1,1,1,1,2,0,2,1,3,1,1,1,0,0
171688000,171688000,908000,47.3977508,8.5456073,-41.475872,-3.5006607,-6.283553,2.5823436e-05,0.0073877177,0.0,1.5350068,0.09194405,-0.026077438,-0.014703146,0.0008346232,-0.00024752718,-0.010746645,0.033971384,0.01660567,0.013086944,1.6416367,-0.006367456,488.08807,6.4041634,0.49461704,0.46421602,0.1781688,0.13217382,inf,inf,inf,inf,1,1,1,1,2,0,2,1,3,1,1,1,0,0
172184000,172184000,908000,47.3977508,8.5456073,-40.73154,-3.4460275,-6.296717,2.5823436e-05,0.0073877177,0.0,1.3321863,0.08338373,-0.007926888,-0.003456025,0.0008346232,-0.00024752718,-0.010746645,-0.86580366,-0.056119516,0.07804389,1.6418037,-0.006367456,488.08807,6.4173274,0.46212408,0.45844558,0.1627547,0.12830919,inf,inf,inf,inf,1,1,1,1,2,0,2,1,3,1,1,1,0,0
172688000,172688000,908000,47.3977508,8.5456073,-40.176216,-3.39717,-6.285447,2.5823436e-05,0.0073877177,0.0,0.7230496,0.042109374,0.013018772,0.02398343,0.0008346232,-0.00024752718,-0.010746645,-1.5320278,-0.10015634,-0.0102911135,1.6424524,-0.006367456,488.08807,6.4060574,0.47281218,0.45876253,0.16529585,0.12957257,inf,inf,inf,inf,1,1,1,1,2,0,2,1,3,1,1,1,0,0
